timestamp,ax,ay,az,gx,gy,gz
0.0,0.18882842164123514,0.06429086899993097,9.8,-0.0029688210047215196,0.01557452434803431,0.00401596233614749
0.01,0.281287794348687,0.1310813068392319,9.8,-0.00014177871267281238,0.022152013393230276,-0.005632124443556228
0.02,-0.06764312763778643,0.06786091246662031,9.8,-0.002655019122037541,-0.010351199682757425,-0.01686478786646518
0.03,-0.040634575272124225,-0.1485017950211783,9.8,0.010717256616856678,0.019453592595905973,0.0026835898515574085
0.04,0.05150002620801891,0.037341850657553154,9.8,0.002003174902976246,-0.003295963706967265,-0.00031837417678582
0.05,-0.006923326743768813,0.0038020339343208063,9.8,-0.005233230676745847,0.011022348936383809,0.013674086862114366
0.06,0.11933260920836489,-0.0311248212127679,9.8,0.00019705611156331661,0.01045576204856984,-0.011568224344596964
0.07,0.14298027180355918,-0.0619404206709578,9.8,0.010384242898938294,-0.022043867094578565,-0.0003078655225117417
0.08,-8.968025795480908e-05,-0.0783426617163181,9.8,0.001925646366447086,-0.006731444464848441,0.0016514019331578976
0.09,-0.30612043769864017,-0.15862890257993167,9.8,0.012502356924224283,0.003702244396206832,-0.00917304269324573
0.1,0.02553275119766847,0.008412400814203263,9.8,0.0014285742210996771,0.006270008222828539,-0.017453584479097374
0.11,-0.08963870166020974,-0.025045103028723644,9.8,-0.008387948539596537,-0.006912184088825628,-0.011805085193056517
0.12,-0.024244170587450913,-0.02542722422572275,9.8,0.005594029568014842,0.00843868470523527,0.003965574287936305
0.13,-0.09029431322425474,-0.005363477718793951,9.8,0.0046958626955956855,0.006921051694970156,0.01271702791551344
0.14,-0.11028563494465785,-0.048368170219415786,9.8,0.027077055223610386,0.0074380798242797185,-0.011832584634874604
0.15,0.11263457578805931,-0.10251582517377307,9.8,-0.003898893082573352,-0.013848289044035275,-0.01249381688918051
0.16,-0.06895618479703078,-0.026164767448837462,9.8,-0.002767000606478786,0.0044071297734701925,0.004317358214111451
0.17,0.01559736003020653,0.05500230849707223,9.8,0.008751618196163156,-0.0050449728656769876,0.001431193454323258
0.18,-0.03432735353801982,0.04042424364997492,9.8,0.0033767074914137036,-0.004026150238110389,0.00859957749849289
0.19,-0.10913869608714062,0.10323926210976256,9.8,0.0038281663400670956,-0.013886171419508165,-0.007796614706501961
0.2,0.03365265341781667,0.059506957498906936,9.8,0.0011917835497940105,0.005161970656895882,-0.012048325078244146
0.21,0.007621743646240091,0.035735699890490004,9.8,0.013856798098829526,0.0013222954239647928,0.003440229760255151
0.22,0.058066127958319606,0.08236861843377505,9.8,-0.012554377901540587,-0.001743428776838845,0.0039654115129587435
0.23,-0.10422179272037024,-0.026300633461727757,9.8,0.018248531959717464,-0.002796773576156956,0.010339133556017583
0.24,-0.06488036647056288,-0.20047361713164324,9.8,-0.012556885886373062,-2.9452560279511254e-05,-0.01421514965825999
0.25,-0.07695006652020431,-0.22177829703455007,9.8,-0.007210907066551026,0.00736684799293012,0.02100781939811602
0.26,-0.12907631074927148,-0.11307762935466277,9.8,0.008293394647656419,0.0010815676166233033,0.0016574590172804876
0.27,-0.012479501877767652,0.1327296965456654,9.8,0.020568376498212474,0.0021064624693008815,0.0027589690114618367
0.28,-0.052514496249505084,0.1361214478591434,9.8,-0.019630078774527854,9.020413093865967e-05,-0.00930849796658905
0.29,0.26528321263597726,-0.013705761978826595,9.8,-0.0020815979314376732,0.005373643846582866,0.010040479655156863
0.3,0.07023584805193706,0.1634279841404763,9.8,-0.012551028987437072,0.013194930366145632,-0.02262785770923011
0.31,0.039253876406889765,-0.21831498359800788,9.8,0.009170864078966333,-0.0014774215215891957,0.002371587840492916
0.32,-0.07152132831229772,-0.06728141046712668,9.8,-0.009195438660770891,-0.006310762582005347,0.010600397465153262
0.33,0.1748760402928281,-0.044654396292620746,9.8,0.018117988395969904,0.00557631312247163,0.013515073684493452
0.34,0.05397433639250504,0.03755186552736438,9.8,-0.020012459738500504,0.00590585949647103,-0.00361429598105365
0.35000000000000003,-0.08652482019496116,-0.055970612640333206,9.8,-0.0027803004576490166,0.0029370756558571337,-0.010900475349012253
0.36,-0.016290968065534654,-0.00033273329628143167,9.8,-0.0067755700140459405,0.016849735585254877,-0.0032178221488750446
0.37,-0.047655602447003315,-0.003369304337452271,9.8,0.015059514901031936,-0.0063393415688905285,0.0056022540387308155
0.38,0.048629585819734124,-0.031316704571649694,9.8,0.010049120582801017,0.00014839782541211847,-0.014868835649298702
0.39,0.06963449457886059,-0.34823364738101553,9.8,-0.006280747066529775,-0.017305092226175097,-0.013447612688776952
0.4,-0.07694476037462114,0.09796222736599629,9.8,-0.004795636992470311,-0.0007736446976065231,0.014489028991864904
0.41000000000000003,-0.1307755664901887,-0.08973667729078644,9.8,0.011150307354972784,-0.005937620474744461,0.0019608515055649874
0.42,0.20727954351179687,-0.019040775087288152,9.8,-0.004025741193881441,0.0004379381745925054,-0.007587037114783993
0.43,0.011359588529367526,-0.03385809866370151,9.8,0.01016145461854135,0.019430239064603397,0.012151229068523946
0.44,-0.07369256065776725,0.08943808495466626,9.8,0.008856802342375035,0.0006840327718199667,0.0033323940010044485
0.45,0.101978196887098,0.17995416109310627,9.8,-0.013199825453602695,-0.0031943973025001216,-0.0002483431114972258
0.46,-0.05517096917505249,0.056141187200946775,9.8,-0.005658153184666047,0.008823644240563519,-0.007221332605753793
0.47000000000000003,-0.14853016418049642,0.17208896577230945,9.8,0.001943055238199481,0.018866277588770224,-0.015512711184017501
0.48,0.06308763125567289,0.04039353410437708,9.8,0.0001093469814323808,0.014642547538847337,-0.014428626683842273
0.49,-0.005685362054628673,-0.007148126784930881,9.8,0.008418546409767335,-0.0018603735798809395,-0.019782456345442775
0.5,-0.20340385073102152,-0.1506641864190047,9.8,0.004538630308706821,0.018530562874799865,0.009675275982977759
0.51,0.009030450710035443,-0.09815411314852743,9.8,0.0005726905224117916,-0.016455910647043208,-0.0034702912358368383
0.52,0.02993405147916536,-0.04476444972298213,9.8,0.002261695147710885,3.200656940683825e-05,-0.006580217239615175
0.53,0.16683486937234873,0.14967586620551054,9.8,0.006130252751614099,-0.01947976277734781,-0.004724325071840052
0.54,0.07869037462828987,-0.09811699808762216,9.8,-0.003396719837472909,-0.008429431466457771,-0.02390385727919327
0.55,-0.049022710173091344,0.12598845282057683,9.8,0.0006215028693179492,0.00018005564341384703,-0.0037881129827274226
0.56,-0.11026876943542813,0.04832329398130846,9.8,0.008453491774574063,-0.005213372919984994,0.0013124372236532921
0.5700000000000001,0.0680751483917846,0.09502134106812676,9.8,0.0011966188480146752,-0.007768578467986091,-0.00579659712820462
0.58,-0.060109087904302944,-0.01320352904640714,9.8,-0.0009563093545381274,0.004339463580354844,-0.009791870164580581
0.59,0.051742325852512865,0.09376151065076328,9.8,0.0028620917227018022,0.001290750617858704,-0.013721040588489568
0.6,-0.019144200743727975,-0.1004757551973856,9.8,0.009263125290943575,-0.01208192131313457,0.017405381942673374
0.61,0.059085875027535865,-0.01481295952615046,9.8,-0.0016383722052696987,0.0137329510646071,0.010904222017490448
0.62,-0.07490665337969608,0.013404397718126064,9.8,0.01351806543298928,0.010469664658990447,-0.002172750688709088
0.63,0.06012434517129394,-0.07573759160270832,9.8,-0.005197946280012562,0.005534200735779643,-0.016554009663442858
0.64,-0.19148734095087827,0.12533507728776924,9.8,-0.008343699411409817,-0.009664679223076579,-0.009223514893201069
0.65,0.0033947407590116693,0.026053795838453728,9.8,0.005057667336683359,-0.009296403861364684,-0.005207414182984709
0.66,0.06587758441908273,0.09565207474017973,9.8,-0.010681912258470316,-0.0083267513058884,-0.011787020792857457
0.67,0.14924562567157754,-0.0846091167639719,9.8,-0.019484235109258487,-0.020004040520695217,0.010822185579126288
0.68,0.030999100165761403,-0.11190076388821212,9.8,0.011563481178070994,0.010222304833205019,-0.00851220659973175
0.6900000000000001,0.09420972211921738,0.04228945117910119,9.8,-8.161053836850954e-05,0.007328698261059774,-0.007920710111416653
0.7000000000000001,0.010637528419042884,-0.04771628370607303,9.8,0.00959418828828324,0.008185017653033614,0.0014905791764337258
0.71,-0.11235094158612172,0.13665916175995432,9.8,0.0030954238266747785,0.005743986314231483,0.007010659399890859
0.72,-0.04071300528053106,0.04610049638283016,9.8,0.022415249033412975,-0.013614991773053173,-0.0017706919483356346
0.73,-0.04290901221592009,0.004316858045576035,9.8,-0.000845408731282548,-0.007076061623096018,0.010799344724985574
0.74,0.08882932119605684,-0.02026342142270286,9.8,-0.000892828519139305,-0.019266068253366374,-0.01446362802964001
0.75,-0.19056894355016327,0.09001076818986223,9.8,0.018719864965189573,0.007003465834429103,-0.0016841636119672846
0.76,-0.003690305801899318,0.04684026235217649,9.8,0.01574310579798622,0.009609505644149996,0.02151959728090219
0.77,-0.015835797456525698,-0.024033876211823554,9.8,0.008671349963371197,-0.009276447189185771,0.01626636290966689
0.78,0.031363271874751075,0.16191021350942802,9.8,-0.0014371115524606183,-0.007119014806024587,-0.0034484841897002927
0.79,-0.11898298901806753,0.11554439028905546,9.8,-0.0010931492405748828,-0.01365432118472682,-0.011922499657008435
0.8,-0.17790538397442815,0.062131601142931286,9.8,0.0015222578050808175,-0.015554032199925611,-0.006588114889732592
0.81,0.00530815685585747,0.08135234675336245,9.8,0.01534812464356986,-0.003180164556897702,-0.00024641492625493015
0.8200000000000001,-0.1360347863273976,0.22145289046337877,9.8,0.005822367126110688,-0.00110210517408964,-0.00027686884120801106
0.8300000000000001,0.06115260408518214,-0.15791812116712228,9.8,-0.0025607683248548584,0.009613282610433368,-0.02031217079591959
0.84,0.013906341566768364,-0.005848831884914281,9.8,-0.008534209713999673,0.0010985409529453796,-0.011470781615742729
0.85,0.08544483518613864,-0.006756818236017946,9.8,-0.0013983239430253717,-0.010482895848818514,-0.00032005373964570606
0.86,0.10973161088501836,-0.08049490489642894,9.8,-0.014512065467754232,0.004764941475627603,-0.003911359360496204
0.87,0.13414495777662463,0.12294792934136133,9.8,-0.0015891676018439625,0.01591425035702461,0.0054898099647390395
0.88,0.08024822706690833,-0.07531275757144917,9.8,-0.007376206672047461,0.0007039951110598377,-0.005723436657286703
0.89,-0.1710446144004286,0.012020603701256844,9.8,0.002287893301610059,0.004399426868008411,0.01255369458354534
0.9,-0.024439816356856745,0.09327483918251826,9.8,-8.744318546707503e-05,0.004587226008237,-0.005629770137170407
0.91,-0.005993358073045269,0.13754179339033729,9.8,0.003851214557926698,-0.0010203997416956176,-0.008998253939369216
0.92,-0.03396890911142173,-0.09592754109424297,9.8,0.0005552660569792911,-0.01610296847215656,0.01348719086428947
0.93,-0.07714158154342034,0.05825808685010723,9.8,0.0024244179113532293,0.005150045289085476,0.005395304593331327
0.9400000000000001,0.040356099913851994,0.07352250805358954,9.8,0.0014909684060255388,-0.007591821154464787,-0.0007207212741202851
0.9500000000000001,-0.1614574806766961,0.033932459384936636,9.8,0.0056386677859235415,0.007147515142401136,-0.018935169662569928
0.96,0.18555575511934255,-0.05846498927572862,9.8,-0.0044290276155266916,-0.004559136311288499,0.002142539829475567
0.97,0.18206010542043308,-0.028172206130078294,9.8,0.0046300601124517025,0.0018134393146909912,-0.008238726103756687
0.98,-0.11348276894331044,-0.06663801729615751,9.8,-0.0003128975434707983,-0.004593600968330194,0.007991656157294505
0.99,-0.14644242168765217,0.02525442889949861,9.8,-0.005132312320761679,-0.0020564491708819185,0.002350950945009506
1.0,-0.08008404665289509,0.0370960365184485,9.8,0.006988348642049402,-0.023117033651691793,-0.0040576251203049245
1.01,0.0925773956151972,-0.09056674313349924,9.8,0.0008997779824733978,0.002778703171429469,0.0004117364314069536
1.02,-0.10998829398600984,0.03970162367929522,9.8,-0.006501693006261929,-0.01636525415241739,-0.002183106310436205
1.03,-0.029914961120270384,0.12663862839855386,9.8,-0.0029593547781897817,0.001289681703853048,0.005807476114570624
1.04,0.07197404043459198,-0.05067025686435368,9.8,0.011672783225008115,0.009257143993507386,-0.006140942999733529
1.05,0.05889607706985159,0.12832825541925458,9.8,-0.005555111146517414,0.009675296525027723,-0.0070835080412032375
1.06,0.1651011927437092,-0.06355851880940691,9.8,-0.006986946400501333,-0.004235102279349776,0.002907778301077735
1.07,-0.026846759721734243,0.07567791867984953,9.8,-0.014159981303173886,0.003266770106402533,0.0022946246225704113
1.08,-0.030216648798140417,-0.15418380616605726,9.8,0.006357080632353118,0.0064105259636421785,0.007597733263132113
1.09,-0.11442785654625609,-0.10042762654630184,9.8,-0.0033145250854226013,0.0009454805484475047,0.019602228182733075
1.1,0.10246397422903286,-0.061251683524572255,9.8,-0.02094963850779192,0.011749342032017981,0.011912853523179981
1.11,0.10060951138182635,0.10562435133087245,9.8,0.015897060353358385,-0.0026394938443214124,-0.008683421348553945
1.12,0.12076680973959011,-0.1929941230958973,9.8,-0.01091715124509132,0.0032448975867975143,-0.005246941181792644
1.1300000000000001,0.197783890880543,-0.29874819875265707,9.8,-0.010997603857552298,-0.015638822540941847,-0.00014387931975704094
1.1400000000000001,-0.028015612685134996,0.049015488045904,9.8,-0.01106994808130254,0.001766980364690417,-0.01454221583681464
1.1500000000000001,0.13395720173807368,-0.07229144611231848,9.8,-0.008507253903197861,0.0038554905691772713,0.002583250171406
1.16,-0.12483006687745722,0.05553748927285462,9.8,0.015430579147022462,0.00856539378905524,0.005511558980252592
1.17,0.022385785526382335,0.04276882614746307,9.8,0.0006645609320504583,-0.008543365929661498,-0.011037886261523114
1.18,-0.010106536114994027,0.11519907538500043,9.8,-0.013942414691600121,0.004542939489884266,-0.010547055399776692
1.19,0.036249878139708286,-0.015240998849470475,9.8,-0.0007439244407310489,-0.00469804103853233,-0.012439485930680212
1.2,-0.1384140162394043,-0.0005186753727559326,9.8,-0.012137910322131665,0.013423712897762,-0.004196996497588641
1.21,0.08068707529689301,-0.08612988651582486,9.8,0.01491160116660449,-0.014866362316769893,0.002384364997943814
1.22,0.09476397671992574,0.001820149111964517,9.8,0.0009949037319237411,0.011930256665869741,-0.005387587228694467
1.23,-0.05096599690795435,0.19332223715930263,9.8,-0.002389236242193542,-0.01973951031168656,-0.00477786709869827
1.24,-0.11654709529027374,-0.14047791579395952,9.8,-0.00483028263811922,-0.0013282705117131383,-0.0069348554922490395
1.25,0.11977282190689911,0.0029890127009463254,9.8,-0.014338860329252863,0.01307610586087126,-0.01792773531270875
1.26,0.15769029149539704,-0.00789942051372132,9.8,-0.0032537830856212567,-0.005670213308881772,-0.02644051289978468
1.27,0.1602155215028794,0.13232974452759327,9.8,-0.007607473172061534,0.004050681291583041,-0.00030067877621454156
1.28,-0.08723560676508503,0.03227437098337192,9.8,-0.008787011331064482,-0.002679461582365965,-0.0147379562799169
1.29,0.07018803026653443,-0.30156742694161226,9.8,0.0037998322678329814,0.012487918752636953,-0.002226097403728085
1.3,0.10305030455889966,-0.07826129000168884,9.8,-0.012324818690507649,0.005553269520951341,-0.012712387866045866
1.31,0.0966039213276343,0.07911171897731643,9.8,0.00772272452291664,-0.0214474881373833,-0.011326057930079793
1.32,0.057886993612146526,-0.07554198301715925,9.8,0.0028479607631099442,-0.008240745052407204,0.012105350246262733
1.33,-0.14284684619304822,0.03121496868103761,9.8,0.008890872825059465,-0.010446305267410288,-0.00969950801730476
1.34,-0.16090500348347314,-0.0826032598034744,9.8,-0.006622871338280001,0.004394749187942465,-3.4228455753761084e-05
1.35,0.04067025787557301,-0.09286092290458399,9.8,0.007439106410345345,0.0037622094558892706,-0.0024204567886953235
1.36,0.00968293270725217,0.12081917320946389,9.8,-0.0009473697325078706,0.0029513285386865346,-0.015762266635398637
1.37,-0.13625319551383,0.00958870311942569,9.8,-0.0025349694705396266,0.0046815179422022195,-0.004184257121100583
1.3800000000000001,-0.005618361208819339,0.033833154937121704,9.8,0.0024456214310547937,0.0004928467466430238,-0.02215379555611734
1.3900000000000001,-0.02823038788368626,0.04584075974415167,9.8,-0.004600499744884647,-0.004890054613614289,-0.004521489770993365
1.4000000000000001,-0.02956398269382879,-0.08972312692958907,9.8,-0.00658991475591255,0.01452446214370217,-0.008289118478208011
1.41,0.09861437569852699,0.08313302341978879,9.8,-0.0020494225943521903,-0.003910888475756333,0.018764943906890916
1.42,0.03535075890477653,0.09129477346053627,9.8,0.004297264744226552,0.008750163414782635,0.004871042500489794
1.43,0.007282770919556595,0.07574946836507382,9.8,-0.025423298480465078,0.015345538000461277,0.008479057858546106
1.44,-0.056790760890022274,-0.030058664445912937,9.8,-0.002608965986964081,-0.010652941976023608,0.0026760783439334474
1.45,-0.13536176110633158,-0.031859187052249945,9.8,0.002514113440691214,-0.002021880535309734,0.005978886017619474
1.46,0.14640328047366796,-0.00746459133188785,9.8,-0.006776687491750607,0.0013458961127694256,0.007451417668122879
1.47,-0.13934770417551642,-0.029266400731707738,9.8,0.010635573198047215,-0.014858475246011398,-0.012444803088151291
1.48,0.12043762733812409,-0.2200579061221161,9.8,-0.003309182691640045,-0.01732562894621981,0.0036225681944532847
1.49,-0.008874542238726212,0.19857843299788436,9.8,-0.01518217540019075,-0.013001687243332503,0.00585900785934053
1.5,0.005060385868076741,0.148381877209761,9.8,-0.008923780805328425,-0.01925167584808657,0.0013068725664755617
1.51,0.054607665569681024,-0.030365251266971156,9.8,0.02212078983301922,-0.0025437361495836024,0.0025322774811524975
1.52,-0.010033177382521428,-0.03190242013996326,9.8,0.01853310994069503,-0.0034277484569137187,0.007601280015289954
1.53,-0.004819472819383181,-0.007807110105726947,9.8,-0.00013829602018160627,0.008311854969581645,-0.013693823557240444
1.54,0.08452598948083463,-0.004837862349712653,9.8,0.004644484488216607,0.013772832277515442,-0.013165547292788786
1.55,-0.08140761565533172,-0.003078072592747297,9.8,0.002760952647340964,-0.004770707742746303,-0.0011941404007311369
1.56,0.02276510761778513,-0.060967381343197846,9.8,0.007429565056413274,-0.0161080524583276,-0.007567644101475963
1.57,-0.10135978271875584,0.05527292856803857,9.8,0.008002151879313607,0.015235024318604167,-0.00373955089543756
1.58,0.15023784366575954,0.027224498942091335,9.8,-0.000777155380268884,-0.016575388957966945,0.009321122913823601
1.59,0.07149647155457176,0.0628174544870908,9.8,0.009521156333806504,-0.01881174539949131,-0.0024275235711921166
1.6,0.12340281326307248,0.053718498030987084,9.8,-0.004725045503203388,-0.007779008401444403,-0.008379572562799989
1.61,-0.1696010742756758,0.1211641372630127,9.8,0.014700150251996447,-0.0028675546156620942,0.00813566348390407
1.62,0.06278400083807208,-0.058846386826072516,9.8,0.009480400379411415,-0.004756554253836892,-0.012811995203808654
1.6300000000000001,-0.0386672488302936,-0.10981141227054823,9.8,0.00958699446843921,-0.009746766465287712,-0.0019012729712856522
1.6400000000000001,0.01695509753478806,0.10122277260904473,9.8,-0.006359601610728709,-0.0008745732001827816,0.004065154083074385
1.6500000000000001,-0.17241543148600874,-0.10045446312047984,9.8,0.00040173989223179693,0.0038440722068700433,0.003836337160905358
1.6600000000000001,-0.09084531578757751,0.2352164021298771,9.8,0.0018600756575914532,-0.0007443038760345941,0.014572599528208717
1.67,0.010589851064529253,0.0728214838303345,9.8,0.011450333616501366,0.0027496573076239927,0.017127406790065875
1.68,0.031873859512526685,0.11803090359486289,9.8,-0.0033776019792814095,0.00019665021947268412,0.005950344542859955
1.69,0.03947570822442074,-0.10355417010375637,9.8,0.0003284491982040742,0.0068581039859078275,0.0005336910024610967
1.7,-0.13149490870320968,0.0983552143471344,9.8,0.009623316441070721,0.001816997351995798,0.013535823965010203
1.71,0.20833461364195355,0.041448398476418555,9.8,-0.0025349674561951645,-0.011616825410494674,0.00872237839516814
1.72,-0.03704130488044189,-0.06873376168763377,9.8,0.004959841296244854,0.025169489869190403,0.021636038249129425
1.73,0.19999760241471629,-0.026983236556525233,9.8,-0.013263421381840402,-0.014752114658389505,-0.014361237237850084
1.74,-0.06695668809630077,-0.14729511898774747,9.8,-0.010984978584819697,0.003965246988503569,0.004282601880418129
1.75,-0.01194197111704244,-0.22859656291383437,9.8,0.000999746730343087,0.008344729174049973,-0.015909489686282682
1.76,-0.02509214106730774,0.014350185945789039,9.8,0.0030350319186612054,-0.004765258142054905,-0.008677043866473243
1.77,0.07125732157952763,0.04901338138954592,9.8,-0.0011235697856092819,-0.007405872361272173,-0.0015337415122456727
1.78,0.0501311799447726,0.07770447669702185,9.8,-0.0071793001574918,0.0069007284960915655,0.0035137386739854
1.79,0.09270649275433371,0.029919176245065654,9.8,-0.008312603919361469,-0.0050053064564919295,0.004372985748184742
1.8,-0.11255138689747311,0.15754786957770087,9.8,-0.009456425524571413,0.005806723092530151,0.0030273555813811297
1.81,-0.034739347256321405,-0.07132192332299032,9.8,0.017875368932743507,-0.007958803785768822,-0.00117688972714669
1.82,-0.06339811574612808,0.018567172553680806,9.8,-0.008151763790965928,0.00572778138457048,0.011298069470392587
1.83,0.1215311430358656,-0.0792018445190319,9.8,-0.008046188173061995,-0.025119683833184844,0.006959056303513753
1.84,0.012925971220117927,-0.04578315235363151,9.8,-0.0030137125335937365,-0.004132766956450994,-0.010290248645310935
1.85,0.008381653256777795,-0.08863032524887646,9.8,-0.0013037070242844923,-0.003018005990018563,-0.013212142356106283
1.86,0.07954739322531533,0.2767893950829884,9.8,-0.010885029105011781,-0.012478115686298457,-0.006043844217253453
1.87,-0.00411019904235173,0.15377365259653564,9.8,-0.012298703954998358,0.004530748899056801,-0.007143780774742751
1.8800000000000001,0.013851416438627768,-0.04131943952562691,9.8,0.0029184794671446848,-0.005187978719459665,-0.012099462072496464
1.8900000000000001,0.03396843882380475,0.10015959028089341,9.8,0.01260886970543044,-0.011997395584379032,-0.012634042638587235
1.9000000000000001,0.12384544428184817,-0.0198961603556635,9.8,0.006861702614791852,-0.01060595047125651,-0.006416868974070642
1.9100000000000001,-0.1015219271586224,-0.08205845019261206,9.8,-0.009526087807538339,0.01271126778315127,-0.0029354884604471648
1.92,0.1191618329652604,-0.02004449572856727,9.8,0.009550216505210811,0.008968732976636303,0.0005955265516334617
1.93,0.03490770953571385,-0.01974342161470967,9.8,8.17667767500405e-05,0.002305737409151708,-0.013436966677021878
1.94,-0.21402549972045581,-0.11106380414933557,9.8,0.009875117090034302,0.000533014477763838,-0.0028096647652122125
1.95,-0.07446999835256396,0.12266737449234522,9.8,0.00918120502680933,-0.010857673591795935,0.018824680637635392
1.96,0.08764064250783764,0.024538762243007564,9.8,0.007632715333473509,0.006137954809650727,-0.011373354702703812
1.97,-0.09621185500736905,-0.23618305241618273,9.8,0.0052972352537129785,0.011358457635163412,-0.014256864600231563
1.98,0.15790467867580346,0.003984626511373133,9.8,0.008303097231132235,-0.00513529834531732,0.005537800426921471
1.99,-0.049984194961453086,0.014198689901353912,9.8,0.0015956102165317983,-0.0010093234994983445,0.01941466639738848
2.0,-0.07240185394473415,-0.08120760051248976,9.8,-0.001349772582433957,-0.00798699345700331,0.004353964440645085
2.0100000000000002,0.09773684135973841,0.2413548321995899,9.8,-0.008065274122564888,0.007499744840930093,0.013358187778582827
2.02,0.050200172821496504,0.0113506548626962,9.8,0.007131643889233349,0.010091787563803505,0.016042117393244414
2.0300000000000002,-0.12100900789472545,-0.23523280894770002,9.8,0.012792560088077776,-0.0047646744403795115,-0.004693035157961988
2.04,-0.0970371713828537,0.01461632152914268,9.8,0.0009639578006313354,0.006238968655843944,0.006847908322657772
2.05,-0.02807650236905559,-0.007966255342522306,9.8,-0.006426741078708033,-0.011096152864613316,0.006697191150900147
2.06,0.09909550500322514,0.10691888930250706,9.8,0.0029591466819836715,-0.01211212667971246,0.012273639335060562
2.07,-0.00936607205072605,-0.051705785850791414,9.8,-0.0044406638103100015,-0.0004463521770007843,0.022759714327983148
2.08,-0.06236669025248858,-0.009309537010774142,9.8,-0.011311584844647376,0.007034464224977896,0.016330930469879868
2.09,0.0010702525445261818,0.0026815529029189868,9.8,-0.013470411463445485,-0.0086063037340084,0.006535207152408391
2.1,0.007629169857482267,0.06321277710974023,9.8,-0.0038361836468266525,0.015262616656488592,0.0020179103654195747
2.11,-0.06895463339491582,0.0497349516392515,9.8,-0.006278170120310125,0.016385544445976803,0.02285570165303044
2.12,0.09791984311692781,-0.017131791954148178,9.8,0.0070985381973016634,-0.005841564003569895,-0.002105021293493358
2.13,0.10726824324605642,-0.04353909467034885,9.8,0.02998605686793473,-0.006839551230878978,0.009432141609320786
2.14,0.028313056586775732,0.14067295107418623,9.8,0.009669892613802744,-0.0005141566898505142,0.007124031882517388
2.15,0.04788363476669204,-0.0033798675881245746,9.8,0.0031698987447363798,-0.0020009595445872512,-0.008359331390184018
2.16,-0.04180552395257843,0.19240629913883872,9.8,0.010716203712146424,-0.0033537001179010225,-0.003201020048787032
2.17,0.019799257895964394,-0.0009331203682605383,9.8,-0.012438988160898046,0.007755380929013537,0.006810821495088207
2.18,0.12029020434630211,-0.12025517767465627,9.8,-0.00307669958944395,0.017103145149715997,-0.005386269946231933
2.19,0.04613416570839175,-0.014136256016324542,9.8,0.00625598629427125,-0.002379271277715194,-0.0025629094724456958
2.2,-0.053928004045697364,-0.12484056084696234,9.8,0.001301298084790396,-0.014904155004559175,-0.009612720019883135
2.21,-0.1556023609352832,-0.05620597767281047,9.8,-0.008388154842107235,0.0017716230529631113,0.006193608481246685
2.22,-0.11454862844685994,0.005759623634336811,9.8,0.008942182514293961,-0.0051285032934927045,0.010013057272385686
2.23,-0.11909438368752673,-0.08681701786694426,9.8,0.001797064254574053,0.0019300845972857628,0.017095092571636637
2.24,-0.010919430382192619,-0.1560788402630053,9.8,-0.002523568735168129,0.015943320179552318,-0.0106764469307928
2.25,0.05902992118043811,-0.12904778466919575,9.8,-0.01484751835685158,0.006300707276410673,0.003922405581575075
2.2600000000000002,-0.00677022403666574,-0.07844497039944798,9.8,0.009277335154618198,-0.013880648883431768,0.0029945182068473876
2.27,0.09348617333543213,0.07099498612236665,9.8,-0.011236291527575073,0.0006839272853740574,-0.004884853014478429
2.2800000000000002,-0.021028744276237875,-0.20642931161831904,9.8,0.008570509474637415,-0.003232708550071816,0.0035693905988278
2.29,-0.22918097252077896,-0.007250041829996771,9.8,-0.013822589418662951,0.0006774073904537296,-0.007591726119534521
2.3000000000000003,0.10514738858933133,0.055692309754334014,9.8,0.0016005587810022468,0.0021627977951516027,0.004876158537844887
2.31,0.14860891040302956,0.11050641276812463,9.8,-0.0013254941945431678,0.004884732251428239,-0.016716652991840192
2.32,-0.18730454869070734,-0.04252727963737096,9.8,0.013584671441210974,-0.006916608654353987,-0.009097817793470265
2.33,-0.10530204699863532,0.03538519130096706,9.8,0.014693236192895791,-0.004708964679145665,0.01605549348751379
2.34,-0.10870134538133867,-0.14324667654530454,9.8,0.0013224225377308646,0.010050333809588774,-0.0029960969529126643
2.35,-0.056825799681504655,-0.030858019078751554,9.8,0.010750505792056098,0.013166293967296168,-0.004952839941230361
2.36,-0.15754961152039657,0.010803959754202735,9.8,-0.012897126291366643,-0.012764643253708768,0.003834281169744112
2.37,0.002476926248150515,-0.12446710249608423,9.8,0.0007514636319457856,0.0051027767770460706,0.005783835053857155
2.38,-0.002762608000052201,0.22491856683146674,9.8,0.009140012387700167,-0.0001661228223073063,0.01767564037035156
2.39,-0.1739667548934555,0.07289045272168392,9.8,-0.0035597947407029727,-0.004455644374510363,0.0004415291361383608
2.4,0.10859241075175881,-0.049097807238723506,9.8,-0.008817740419105007,-0.0043221014065069315,-0.019788061987104307
2.41,-0.051270413893826916,0.09416132331759831,9.8,-0.003928818904576414,0.012253400134618748,-0.0015011699956167526
2.42,0.02200034432704225,-0.04499624969377463,9.8,0.005247071868185007,0.0001686683189707793,-0.00019697080487581834
2.43,0.11678251001100058,-0.0413120629821028,9.8,0.005028784279843898,0.008050680140834711,-0.002423318630701069
2.44,-0.030693153360201227,-0.21651887597127517,9.8,-0.010300776265893442,0.007018806863662722,-0.001655688632061397
2.45,0.07305460906279608,-0.033066320653157455,9.8,0.010306964505303145,-0.0004154312308937909,0.0013702206575948526
2.46,0.03900685471316045,0.06530163573409574,9.8,0.004388572207054287,-0.0064855421692012905,0.0018358268514909798
2.47,-0.14797002214964833,-0.03084586808373256,9.8,-0.0225632165346613,-0.017096588648656742,-0.004549340570768631
2.48,0.09482622044161117,-0.10739435759894633,9.8,-0.006084983560231223,-0.0030818026200175514,-0.02575557004019448
2.49,-0.06110880988363432,-0.021653618206834115,9.8,-0.0065174560426015885,0.010783641947073805,0.00011616271721787698
2.5,0.015157473582632704,-0.18337063378445864,9.8,0.011091865335576054,0.0018633135898145443,-0.0069074716611948654
2.5100000000000002,-0.08560730142469561,-0.09762809973518333,9.8,-0.00030649363342034045,-0.013109677560002893,0.0024395119475202724
2.52,-0.03846805471470819,0.15831098905880817,9.8,-0.01406154391544691,0.0011250582540695698,-0.012103632328032837
2.5300000000000002,-0.0535496230269924,0.14997780664823498,9.8,0.007247490938334187,-0.015032836254455308,-0.0027525715469361527
2.54,-0.18895106997166755,0.18678323144315287,9.8,0.003700358915687157,0.001966897781890301,-0.00527890352122313
2.5500000000000003,0.14747395334775068,-0.04109263806091194,9.8,0.0003157067711094161,0.005687193364878877,-0.0007657371231456593
2.56,0.025034096138072455,0.0011152917740339793,9.8,-0.015976120727892396,-0.0021833329102966576,-0.01825585614906465
2.57,-0.08750776397318683,0.03314097848521886,9.8,0.00034548863685311026,0.004124272237584946,0.013181830285222587
2.58,0.01601841953219172,0.04998117050393713,9.8,0.011826592862987482,-0.0049832143522476535,-0.0040023867248997445
2.59,-0.07159746050560721,-0.08558665742500585,9.8,-0.0015914452829698688,0.0024448956236805173,-0.012159782656606912
2.6,0.11479586588192414,-0.25175482523082054,9.8,-0.006824638563272673,-0.008830290641163335,0.011603643375424681
2.61,-0.024764282169294577,-0.08439713786952202,9.8,-0.0012537281948206806,-0.008017818880981797,0.010814341596963664
2.62,-0.02387181054765078,-0.15537764761689735,9.8,0.0038779803526263193,-0.004011167597514103,-0.010564496912357406
2.63,0.05223893124827631,0.10336917254732986,9.8,-0.013189614928978044,-0.007618639682945796,0.004901259030752591
2.64,-0.09892707220883698,0.07690911791443521,9.8,0.011138204565251449,-0.0032997397512167497,-0.007883586957276149
2.65,0.14248685521187032,-0.08616594241020109,9.8,0.0096135868948328,0.001792822356834034,-0.0007540331471310697
2.66,0.02207893194689734,-0.05800086671522009,9.8,-0.006047134263956624,-0.010863480840963344,0.021013702664178978
2.67,-0.016732367729131458,0.03465362012943109,9.8,0.00678464774641483,0.007624565191283157,0.003956483088797881
2.68,-0.008055244915865586,-0.02154526342877175,9.8,-0.0021195631763316646,0.005092243680475474,0.011603833004639515
2.69,-0.07528698369010066,-0.003272522939759827,9.8,0.014317213275803367,-0.0033518567957491786,-0.008553421445900662
2.7,0.0882955839046046,-0.04423538581835043,9.8,-0.0062567862203669255,0.01574967017064701,-0.013128630942638131
2.71,-0.24836653924829868,0.022830061558297123,9.8,-0.0013954137764374454,-0.01627308898196703,0.004362855720732374
2.72,-0.10285137516534162,-0.00593403004440718,9.8,0.0033797896421337036,-0.008904573064398373,0.007697735434230636
2.73,-0.07648276950747628,0.1265326913696288,9.8,-0.0053862998953354314,-0.006506430006729905,-0.00017612856646051899
2.74,-0.0966021310181745,0.05241405340646556,9.8,0.008006931728588618,-0.0009505971849100455,0.0009573032568753107
2.75,-0.06403757957504923,-0.009311235745757944,9.8,-0.00973573557852053,0.002511066332926007,0.0031302972022397182
2.7600000000000002,0.11517374843124245,-0.11221403780473982,9.8,-0.0010628170568997032,-0.007863504763615161,-0.0033529389331725255
2.77,0.1408364117226349,0.03860532894032059,9.8,-0.0037874483421401228,0.009117710955590667,0.00937126257519688
2.7800000000000002,-0.08435089252576161,0.07547507868371162,9.8,0.006439649860543591,-0.017594575265723368,-0.009353968984100595
2.79,-0.2038661937286415,0.0646679355395587,9.8,-0.004616503246427099,0.018122806835033242,-0.011372073508509287
2.8000000000000003,0.15088997418534705,0.05171145885135368,9.8,-0.009767914909416553,0.01078854495808103,-0.0013731851439292605
2.81,0.00751313845022791,0.13444449330117503,9.8,-0.0020379856581359307,0.0027575447923984466,-0.00010338050345823142
2.82,-0.08013351603519347,-0.12039948702069979,9.8,0.02102500060592202,-0.004493450238231661,0.003938176319110062
2.83,0.13773241930340294,-0.08457197647009833,9.8,-0.006662559313502626,-0.004439148838303996,-0.0011913380086385995
2.84,-0.021195029880104257,0.2581493602325376,9.8,-0.01460918384527145,-0.012832269197150734,0.0015364986385643423
2.85,-0.010946976180964936,-0.07090349146507434,9.8,-0.006365205688210438,-0.008508683228436434,-0.003498904707160139
2.86,-0.1988823795364115,-0.05082737546978055,9.8,0.003141036898222781,-0.014826250554333335,0.008111989380743265
2.87,-0.02461033671234715,-0.14379370587171203,9.8,0.008052216443422125,-0.0032863532397710594,0.0016915525742560165
2.88,0.008896084439085527,-0.1592951485260176,9.8,-0.01458444801220191,0.009853647863233114,-0.007463435611689562
2.89,0.15692604647790573,0.07643341845873158,9.8,0.019982546852761213,0.004681047800214617,0.013554097799127071
2.9,-0.02999688972458204,-0.09632481962939243,9.8,0.0001127626315570593,-0.005819765919812378,-0.003230362565790137
2.91,-0.09588924960268363,-0.08743057711080135,9.8,0.016707203572848252,-0.006073044047787198,-0.014452578627216417
2.92,0.0655294733572813,0.0015129708838301276,9.8,0.006543389048078522,0.010362019587271381,-0.009231426744604306
2.93,0.10495544183205174,0.11571422456257174,9.8,0.017606613922321705,0.00016278622932374022,0.011150700283462859
2.94,-0.092244657906577,0.09959807887136879,9.8,0.014418323701590975,0.003230044057628098,-0.004697053663170437
2.95,-0.01554791078530812,0.09018790486018123,9.8,-0.00042476723616596476,0.011408278285954246,-0.006191544074881165
2.96,-0.03067926075387662,0.07186349761589193,9.8,0.008367648358319425,0.001959054448382259,0.00018720029094065633
2.97,0.18003362315404417,0.005221819487502605,9.8,0.010387146303713317,0.015117859019277112,0.008789581528723512
2.98,0.03236404428259221,-0.13155107757789516,9.8,-0.006604255852000966,-0.0032630134222074465,0.005803577506583583
2.99,0.08586574673932851,0.04472501218767644,9.8,-0.01247377992862927,0.003936158375273856,0.0032666026744330437
3.0,0.04401808081885379,-0.05924669767122353,9.8,-0.009884602032172984,0.0009039111569817051,-0.0056769434967933255
3.0100000000000002,-0.03600076159727568,0.017415484756970575,9.8,-0.007732282573113517,0.011286032229633163,-0.008728169963015137
3.02,0.06116355546172826,0.04576362960703422,9.8,-0.006829565484314826,0.012634771253803056,-0.0010199011327005497
3.0300000000000002,-0.039929841285312455,-0.08170357466571425,9.8,-0.002822714152413957,-0.029160783087740453,0.002263283341220679
3.04,-0.002404845650609379,0.04304984773539322,9.8,0.003084816385901239,0.002229865795027261,0.012857273964142855
3.0500000000000003,-0.03138060151794916,0.019169172980349425,9.8,0.0023646126811946236,0.00540639944180271,0.003715117368722142
3.06,0.06515847653565647,-0.08083906647118673,9.8,-0.0068930534151875715,-0.010594447759358375,0.018198004438687205
3.0700000000000003,-0.08643993206404924,-0.057173154901682566,9.8,-0.0008079042962631672,-0.00435758300189746,-0.005424099626984908
3.08,0.039225649315465266,0.04095563316223273,9.8,0.014366674731535722,0.013171322898640758,-0.00543813922856548
3.09,0.04615096124233777,0.06907847351615848,9.8,-0.008595356016015717,-0.012603612076422655,-0.008473311046663826
3.1,-0.223969354024837,0.05187902479962673,9.8,0.009173600266674305,0.014606856672282,-0.015132437479954044
3.11,-0.036870972098191894,0.12768664736107777,9.8,-0.001572347406977,-0.013834740119952161,0.00538910154543041
3.12,0.25233275874127953,0.15157727518814335,9.8,0.0038160610278630677,-0.01843505919662606,0.010627372240895551
3.13,-0.006250249015807326,0.0032213927230809974,9.8,0.023875224510823162,-0.001082332732877747,0.009005632309367293
3.14,-0.033155025916991196,-0.025374347781164115,9.8,-0.01134175146877271,0.025816613837765633,-0.000444505578785938
3.15,-0.08032336447753217,-0.04662830999329565,9.8,0.003960869559607996,0.016605686603536937,-0.003319253875900352
3.16,-0.12553821137564877,-0.0649822899048867,9.8,0.006692657119127866,0.0144137934066257,-0.016820395220937076
3.17,0.0290695794168115,-0.0893304935007325,9.8,0.0005585038199186801,0.007513876285303023,0.02245991272787001
3.18,-0.10736287266056731,0.10243508983321599,9.8,0.023616962760832666,0.00577006345869112,0.016034617587354347
3.19,0.16119412789159018,-0.04291350381615233,9.8,0.010577828748654221,0.004725612314829549,0.004955697972810047
3.2,0.07661421954643166,-0.10889092179321996,9.8,-0.007657778792507257,0.007359614765777693,-0.013290608934426134
3.21,-0.00599847890871733,-0.12265326650769302,9.8,-0.006637824619264786,-0.0041928660004890385,-0.007131256609219656
3.22,-0.13381224503354494,-0.010647628812211854,9.8,-0.007741315308605143,-0.024056329971250966,-0.0004977511597079497
3.23,0.154875144844604,-0.044296020590913865,9.8,-0.01035229273871864,-0.0026756522379596855,0.004921595832682797
3.24,0.18379606826034206,-0.05029320559432607,9.8,0.0007968114955511484,-0.010103028035599908,-0.007391161918119836
3.25,0.021352012739818568,-0.1374432414903814,9.8,-0.010407037183718963,-0.0047819732759782066,0.01486050608979382
3.2600000000000002,-0.08752009866613802,-0.1449661643478799,9.8,0.007466539346077904,-0.00147926241177365,0.005495371488325081
3.27,-0.001851228488572578,0.13460531156002378,9.8,0.01464954404186278,0.012879088205254519,0.003301620755918953
3.2800000000000002,-0.18779719919975918,0.20332245842107213,9.8,-0.029113208551299126,0.0017898032756834747,0.011505785163405809
3.29,-0.03192172862877476,-0.004631165529390589,9.8,-0.01673053469524599,-0.008849022390483775,-0.005742030376822062
3.3000000000000003,-0.09315182036340425,0.03367632325939771,9.8,0.006432479252339444,0.002307830706881536,-6.341910022928292e-05
3.31,-0.1744442066462205,0.07852389870646675,9.8,0.011453420562199421,-0.009762757460464849,0.015285829276706476
3.3200000000000003,-0.09587082556445323,0.01698338502568364,9.8,0.0018458921614212566,0.001008653337875212,-0.011651484449768415
3.33,0.014850289619928842,-0.12126529552959696,9.8,0.006199219240883957,0.02454900547850552,0.008544054186115115
3.34,-0.12458580908162471,0.0014282113389329986,9.8,-0.007286963561977407,-0.009479906453086884,-0.011726380885557663
3.35,0.02640611655218803,0.3274526696626454,9.8,0.00887653690876561,-0.004134872826698267,0.003922563989066974
3.36,0.049965529722428285,0.21366626474378247,9.8,0.0017836814803694188,-0.007267500349753379,0.009382072466504266
3.37,-0.1472410777963217,-0.04800473745383455,9.8,0.0019154857893658728,0.015809927642610713,-0.0032987817202899295
3.38,0.04183082496502577,-0.14269148578151167,9.8,-0.00296304558489934,0.009545248916307284,0.004064114503049811
3.39,-0.018234839325268103,-0.003311384462036297,9.8,0.0015586806123052675,0.019093979195795325,-0.007453482979205645
3.4,-0.16088480117626403,-0.004155747197174399,9.8,0.00427366761743,-0.0016297682130280353,0.01190659772281213
3.41,-0.02006194689164552,-0.041809337730281476,9.8,-0.016972763741724958,0.020085970431190245,0.013981670778170576
3.42,-0.06963288568267313,0.09338323703899265,9.8,-0.0008795289095215831,0.019258385822660765,-0.003693097378721972
3.43,-0.0470216272628288,0.05617831834194597,9.8,-0.007616514421751434,0.01023527117325938,0.0013749309524415663
3.44,0.03166205196959734,0.03706511483588681,9.8,-0.006040071137896217,-0.014163125803360195,-0.0009355974734954275
3.45,0.07699408767752995,-0.06735462300896056,9.8,0.007227346226349834,0.009421202745217034,0.006304583970265699
3.46,0.08430703783271437,0.1250171919721985,9.8,-0.013225072595759405,-0.008563179995464191,0.007873102525349807
3.47,0.05714541555499745,0.061164384207758875,9.8,0.011613777473826284,0.011039534750632095,0.0022078127286171145
3.48,0.012122928112585253,-0.028145486403056322,9.8,0.0006887719900322398,-0.003367313325618925,0.019563658571396997
3.49,0.17529149428856633,0.1160225542804233,9.8,0.004569509137312745,-0.005000921270834129,-0.0046168909721945005
3.5,0.014513384089126386,-0.08748334063952544,9.8,0.004107546271283118,-0.002005776862262219,0.006689048823911468
3.5100000000000002,0.05222135444846213,0.013474838170069016,9.8,-0.008912429755175845,0.006261185897290465,0.00033058912346638404
3.52,0.13568087734105125,-0.06722283880819604,9.8,0.0003301758397008934,0.015066346013519345,-0.010188020830299438
3.5300000000000002,-0.04515848358240171,0.142043692507589,9.8,0.0034859813178408252,-0.01552897660026952,0.0034667268725358993
3.54,0.021289974700976395,-0.04226117615331931,9.8,0.016854553259327117,-0.006267033165622986,-0.007568159628934398
3.5500000000000003,0.024970574056511013,0.10506009845154907,9.8,0.028239723599855566,0.003339693157958568,-0.008479831976369593
3.56,-0.15796929923287523,0.05744229580426925,9.8,-0.021635981561109317,-0.005975102583853035,-0.012231073485948993
3.5700000000000003,0.039471136108104855,0.14339609750457183,9.8,0.01859562725226098,0.009204301242864716,0.004445778119769161
3.58,0.03904189707777838,0.0712989841178493,9.8,-0.015824433294739645,-6.394019144822427e-05,-0.005991056205539634
3.59,0.2409149985879184,0.014146905034262384,9.8,0.006308529846243829,-0.0177154026829042,-0.004018461695817401
3.6,0.005161011221985023,-0.001727518777172931,9.8,0.012449017749215597,-0.007229834459573643,-0.00534578270025875
3.61,-0.06706472460548574,0.03565259343670072,9.8,-0.0031515109180676537,0.004702789878117293,-0.002144366527318042
3.62,0.0938580270979658,-0.010375353345364224,9.8,0.009928275875556072,0.010596342357272701,0.01144599813725537
3.63,-0.04162100275555331,-0.3201879901052503,9.8,-0.002779373046546438,0.013605488592125665,-0.007292147806284789
3.64,-0.13331350978897247,-0.0346497734632311,9.8,-0.0036153514059712975,-0.006137855616360596,-0.0014609670066019654
3.65,-0.11263592938137526,-0.017257525909285622,9.8,-0.010055000143741276,-0.011993623560660771,0.0007024391392840254
3.66,-0.20072495827769885,0.10090705853774351,9.8,0.007327991185111047,-0.01740846138129206,0.0033648746536572667
3.67,-0.1832022978013202,0.03539001924194025,9.8,0.013418467219506753,0.0020095760498138613,0.002368678337902181
3.68,-0.024203164823211085,0.01726635182448312,9.8,0.011082026445605558,0.00882957420588402,-0.01621691835918548
3.69,0.06394571515591817,0.04381687937379474,9.8,0.008074801778244819,0.01644474661130314,0.030547302613022395
3.7,0.1341043898406858,0.051400101413503776,9.8,-0.003489547572435547,0.012993262873226752,0.004751660280002031
3.71,0.11859139453727954,0.13216545692440207,9.8,0.0012430362809328266,-0.008279515244596176,0.009300134009284521
3.72,0.0334973806236638,-0.14346819600116936,9.8,-0.01524405216665364,0.007126442319690364,-0.011962988568633894
3.73,0.08498777063991154,0.12050076770504517,9.8,-0.009986258684525915,0.006174468524955947,-0.011356844265494366
3.74,-0.07113403905613276,-0.08969998787851645,9.8,-0.008494020868542977,-0.0021064889408649564,-0.008270903930742101
3.75,-0.07433703319306968,-0.11283895251246548,9.8,0.012347602899721524,0.004455940440998357,0.0020718587647584183
3.7600000000000002,0.13420339264983247,-0.0441387566579548,9.8,-0.0019713630448016336,-0.009376314282921669,0.000662719368040381
3.77,-0.022474136281499385,0.010201605553415366,9.8,0.0008569184086127975,0.016767075037599756,-0.006311202152382767
3.7800000000000002,6.996069439330211e-05,0.03897410744687643,9.8,0.005454922715674256,-0.021027714680991766,-0.0023642061490339
3.79,0.18226547319301706,0.1267765505254889,9.8,-0.006344248485641789,-0.007118946394113998,-0.004405822986787979
3.8000000000000003,-0.2157194472066667,0.010817144312878906,9.8,0.009744537309776606,0.007012293165692465,0.004679550433997078
3.81,0.13378781960851593,0.08853926941534583,9.8,0.003067330623015801,-0.009627821583431019,0.0001836112085383414
3.8200000000000003,-0.0899021855989493,-0.09032337690087276,9.8,0.0068239373946672325,-0.0003140763463389852,0.0002303922519556088
3.83,0.036252041429876224,-0.1137492055035923,9.8,0.002328934015247786,-0.011887758413924468,-0.004242098999520822
3.84,-0.10723931246836321,-0.10028597656208132,9.8,-0.016754457194597124,0.002842334953295083,0.012519975076757886
3.85,0.020053408348231154,-0.08877272682704983,9.8,-0.0031237254864958505,0.008696784007584403,0.004219935490013021
3.86,0.08531405714291142,0.13515282911814966,9.8,-0.012709200798358973,-0.023241072877647328,-0.019552673201702356
3.87,0.04030967035641992,-0.04981363799354777,9.8,-0.0026994792540829936,0.009958393833324815,-0.004555927949671187
3.88,-0.16406593101296366,-0.2613922412672659,9.8,-0.002484531994890794,-0.0023315339714498067,-0.00024832761232451266
3.89,0.050181537882172604,-0.09762035022470333,9.8,0.00895754248743393,-0.0028123298913977036,0.010011639518435625
3.9,0.026150215471222635,0.044191675505187045,9.8,0.004417353674306295,-0.013947248681651613,0.00302948918766946
3.91,-0.07244835809496743,0.11538755173592895,9.8,-0.01687017899824704,-0.003866658147277621,-0.008309936902184597
3.92,-0.1024975862147533,-0.08103031177723244,9.8,0.0008349248423659431,-0.002539664736085757,-0.014352984436867397
3.93,-0.06056752646322094,-0.09531665989857901,9.8,-0.013855094966437482,-0.014236906959664631,0.005816874128796132
3.94,-0.07164810126835645,-0.026857838529959762,9.8,-0.01053567705730254,-0.011060594585135556,-0.0034838263860295727
3.95,0.009942924031954459,-0.10274129410859789,9.8,0.0011085973556562625,-0.022965242804985176,-0.005169431981694906
3.96,0.09861638985550414,-0.03764318734375546,9.8,0.011644560733408341,0.018934129113315407,-0.005528737879085983
3.97,-0.010808890108412336,0.03526220474847589,9.8,-0.002166042524276823,-0.004117012293550136,0.020277636788543517
3.98,-0.09223255038783229,0.1191573186893193,9.8,-0.007736636590472125,-7.194068929701727e-05,0.0045686413532739405
3.99,0.11835558891430052,0.1406698158620826,9.8,-0.018402772243340415,0.026176626067304202,-0.008293849994767958
4.0,0.005585809522991735,-0.001085090016260061,9.8,-0.00465115341882672,-0.011650401131676287,-0.007254940863497093
4.01,0.0005042477302030891,-0.18074987325408887,9.8,0.019790471958105217,0.0101104057992656,-0.010243664892125815
4.0200000000000005,0.2233822497401874,-0.05127517327692645,9.8,-0.017770956823712398,0.008979009880178628,0.01012271231217485
4.03,-0.1520278429595862,-0.03286408528633081,9.8,0.0026136385913609265,-0.0019996810031347213,-0.002616309922636793
4.04,-0.1298548371381279,0.1755747083543318,9.8,0.007602452991345174,0.01630068832058909,0.008094509447366572
4.05,-0.009195909499062495,0.14698398010201583,9.8,0.0012585403439794105,-0.006258107391310521,-0.005110985538813752
4.0600000000000005,0.04243083460434566,-0.021661665527826685,9.8,-0.004623998632298607,-0.01241379552816405,-0.0052958065231052155
4.07,-0.07591885199534705,-0.09674102782935717,9.8,0.0055058841359654775,-0.0008259341573396929,0.0009479515099806682
4.08,0.13177939283879175,0.06853933852067322,9.8,-0.0004544160249722106,0.021416528425095317,-0.00641885295097191
4.09,0.018719819759422364,0.04214963869461444,9.8,-0.01033264031176093,0.012957705146581074,-0.00396959337797599
4.1,0.01904900141746478,-0.04590212540229497,9.8,-0.015529628218528024,0.010832109831975759,0.00453378736162131
4.11,-0.20203227716964656,-0.17901731627821615,9.8,0.004931444110311912,0.018751614786442616,-0.0002858206001646552
4.12,0.026077406266456122,-0.03602821592716168,9.8,-0.005203819252799942,-0.006400433681337984,-0.019969385755393997
4.13,0.08951409437882663,-0.12309354512984019,9.8,0.031184705337256584,-0.006696910422601195,0.0056239229129934785
4.14,-0.0292905313896967,-0.15089035191314432,9.8,0.001623507168771739,-0.0194876009989797,0.01086468384291845
4.15,-0.08811519380426647,-0.0868894486759334,9.8,0.0048587694906776025,0.006030476145584345,-0.009878367120724514
4.16,0.12966387938041288,-0.001974978007938504,9.8,-0.014425873126873002,-0.025551451216187654,-0.012330937369680035
4.17,0.14263803084734053,-0.18288527205365002,9.8,0.019031817824406855,-0.011447526106002031,0.013947997062586447
4.18,-0.1938821687360352,-0.10084068285435761,9.8,0.003616019331040879,-0.013215902510418256,-0.014993771671034219
4.19,0.16272916288450695,-0.011502684775390345,9.8,0.004610293028446891,0.013318321340589257,0.00556275118978488
4.2,-0.013592888687768152,0.07221074951366382,9.8,0.0018560501570137563,-0.004102974238935335,0.0032578483429899557
4.21,0.26211026847400154,0.04639522966271906,9.8,0.004486755885176778,-0.008320137026285137,0.014358811575298072
4.22,-0.07691937782930201,-0.03526339650668694,9.8,0.013188933771884223,-0.014181717229153986,0.005476944551645879
4.23,-0.1264347099502163,-0.07592299759979206,9.8,-0.00321981657873785,0.0138847693784138,-0.013665600945333754
4.24,-0.1092980985401868,-0.09606488984044208,9.8,-0.0018926669556087012,-0.0064522435966550655,-0.005339042472840498
4.25,0.12731113610373584,-0.003453991588690869,9.8,-0.004742544015731206,0.023824759119640278,-0.008033474480841834
4.26,-0.0890565164476439,0.024913463802930406,9.8,-0.014556397953972306,-0.012530666670855258,0.004652998559963355
4.2700000000000005,0.033172710591156375,-0.004312372969022697,9.8,0.006588422208740744,0.008974787758594303,-0.006901679394108319
4.28,-0.11175450340853449,-0.11237893689402777,9.8,0.004894887343844865,-0.020878182632894288,-0.008368362118513436
4.29,-0.03318050892463659,-0.04011815539203358,9.8,0.0028777852022541014,-0.009751648937570011,0.00026685456609366637
4.3,-0.16133491619689863,0.004141844228024172,9.8,-0.0046616215204693945,-0.0030172989221229404,-0.011633759198725517
4.3100000000000005,-0.030254515046910638,-0.03153935195534163,9.8,-0.00411226864200791,0.013138096048097793,0.008567393979320968
4.32,0.026364169592949255,0.012079987406604762,9.8,0.016550424732353387,-0.006741009712105832,-0.0028848617612910526
4.33,0.05625411322015749,0.034394430998432514,9.8,0.008043520189288734,-0.012164379544383968,0.0027058024576141443
4.34,-0.13600646577616696,-0.006806972505870908,9.8,0.016252082123617527,0.007250528933596329,0.013098796685199155
4.3500000000000005,0.11723775251253805,0.06566238152665164,9.8,0.003526038564923565,-0.0077900204038301385,0.0028314541606817524
4.36,-0.04386727420389426,0.07555811847241173,9.8,0.004214158030716451,0.004966383358439148,-0.00327116709146249
4.37,-0.11304885698566942,-0.007205112405545429,9.8,-0.008346085372922304,0.0029463637246894404,0.006150273541602913
4.38,0.12148270084571455,-0.018431285395764222,9.8,0.0056930970710196835,-0.01062812337107288,0.0002152515746506565
4.39,-0.04247618570644818,0.005501292833578578,9.8,0.007055754200856487,-0.00016962993005964833,-0.0041060952250474994
4.4,0.22057030356183935,0.01820275477302895,9.8,-0.012317242633161845,-0.016499104957385224,0.009176815701042536
4.41,-0.032713815592772075,0.0034933379404667748,9.8,-0.0013001505429572997,0.0013515424578406851,0.026446106279681553
4.42,-0.0043689230752019265,0.11977091660047574,9.8,-0.000327808186429129,-0.008306460823810034,-0.001618049833076039
4.43,-0.09100098554106181,0.02360637289943572,9.8,0.002512855610974925,0.0034345184732622264,-0.004061508418989498
4.44,-0.00922239383745403,0.00598485284700723,9.8,-0.010478645596212541,0.002662310944076029,-0.012382374769038676
4.45,0.19738920829053044,-0.02443491015239678,9.8,-0.0032734782613079967,-0.02082892024453263,0.01758167131057084
4.46,0.04734936267012438,0.02004809768658613,9.8,0.022570196742388766,-0.005345865481652976,-0.01702075187835476
4.47,-0.023995061907548063,-0.039243962461420895,9.8,0.013848398028554006,-0.0015795244936408002,-0.00024968418415393425
4.48,-0.06401468302787515,0.24663373748036152,9.8,-0.018205250312481568,-0.005402666741031561,-0.014755816214629439
4.49,-0.027143988210693706,0.037772137521343334,9.8,0.004192663345849743,0.023861165372542372,0.013247514516843268
4.5,0.0033840895635460833,-0.008171642607283078,9.8,-0.008684417146220192,0.007830205386212609,-0.009895503591911216
4.51,0.13774955866018523,-0.0490682372402694,9.8,-0.007218316107355506,-0.022674101813379845,0.0065319623958927835
4.5200000000000005,0.039573708931661185,0.06319028038122512,9.8,-0.014631692373710807,0.009630012730083135,0.0054867725295448515
4.53,0.15448596185994654,-0.04056056385983312,9.8,0.006663717682452097,-0.00035046592727464655,-0.0046841105891469795
4.54,0.12885529162392165,-0.11652704379893127,9.8,0.013075339984891255,-0.00386720934467473,0.0035315240335374327
4.55,0.16611087692600998,0.007621306580176745,9.8,0.0027782066366167125,0.0051743521036786,0.005477931449657325
4.5600000000000005,-0.12513778822975816,0.027425200284491347,9.8,0.005908440594484868,-0.0008948490787263945,-0.005504830132496701
4.57,0.14754151653051037,0.12219088360664453,9.8,-0.0063545778526518035,0.012562821243996774,-0.014777317022896449
4.58,-0.13808307000792427,-0.06999074295622269,9.8,0.00586564300291908,0.0014296462157757318,0.013706994312611295
4.59,-0.1874391393141955,0.25728273550056396,9.8,0.006926380930068822,0.012840380356501842,-0.01409251156101238
4.6000000000000005,-0.019512812656338047,-0.013465394237565185,9.8,-0.018213434476465087,-0.01211166773694998,0.009989571001878436
4.61,0.0009317442095582517,-0.011155411119902996,9.8,-0.002922967666764523,0.0034386597481475966,-0.00019237154719319204
4.62,0.2792137148663289,0.11145884071823434,9.8,0.003083833248672659,-0.001427852341229169,-0.005265622943361185
4.63,-0.08656829726887681,0.049529304677513306,9.8,-0.008324522446808284,-0.008462262711325308,-0.006777003799925916
4.64,-0.12024105146183495,0.02687861800195254,9.8,-0.00947445804874075,-0.013771605474861384,0.0027397275840528286
4.65,-0.11641205819589961,-0.032299013059109156,9.8,0.001685710801130532,-0.013795261485532615,-0.01184170750630867
4.66,-0.10810894510073724,0.13140587791306657,9.8,0.022408491994274114,-0.014612125946480018,0.002423790337636338
4.67,0.011744482024276446,-0.03406508935072597,9.8,0.015101235117376184,0.002745242600349257,-0.005572403969054528
4.68,0.15329122531806175,0.17838175328456463,9.8,-0.019963367282047752,-0.005822748583573782,0.01340753525717488
4.69,0.18572309065105908,-0.11460292810651561,9.8,-0.004279833054816189,-0.006123088494771148,-0.012242638577421694
4.7,-0.013660557584368495,-0.09940642851570732,9.8,0.010891262714317012,0.017766462320353466,0.0008679555877049459
4.71,0.1747044456555688,-0.10222991674141112,9.8,-0.0005782074920447858,-0.019506163078779885,-0.01903711207004376
4.72,-0.012241337477654844,0.022857988858128307,9.8,0.0005469998214798958,0.009380267567625082,-0.00850423304729566
4.73,0.015702536260509502,0.04420501403102419,9.8,0.0070289783011617205,-0.008452777710260914,-0.005556409381496327
4.74,-0.11234851383017866,-0.041598130612972684,9.8,-0.011509471786849301,-0.0005377542049505549,-0.004302200082347254
4.75,-0.04331655335398562,-0.030241549842975363,9.8,-0.0064937393548097225,-0.00952888067035684,0.008599019959925167
4.76,0.00300583531285022,-0.025936613144656763,9.8,-0.011981671931561307,-0.005786127435162406,-0.015805405474752978
4.7700000000000005,0.03205980422949695,-0.025308862761849127,9.8,-0.01886690856284767,-0.000380887297942211,-0.003408453183149414
4.78,0.08487127581994564,-0.06665403379847025,9.8,-0.011934240319771585,-0.02064583463552297,-0.000434462035136602
4.79,0.006366150640401424,0.029139592147641308,9.8,-0.008447041648487613,-0.003949551463892638,-0.016971129548018663
4.8,0.04744581880742866,-0.04195017722832684,9.8,0.005683666212354055,0.011488402251324716,-0.0016929820107490755
4.8100000000000005,-0.055197237755071384,0.02000437577191456,9.8,0.004900175334157719,-0.0010964670477661485,0.010271148566785921
4.82,0.05200052134326791,0.07608525725871917,9.8,0.0053838302762830295,-0.008117573714954928,0.02713986871426658
4.83,-0.08138531462959635,-0.10031054768295518,9.8,0.01288703012528934,0.005910312828359995,0.002821460446149044
4.84,0.16493423243870722,-0.008648674756214168,9.8,0.016847106889287974,0.006075486711768725,-0.0020650690163192095
4.8500000000000005,0.11777639185656985,-0.06892122653903615,9.8,-0.008931430182029144,-0.007763340479875455,-0.00857326533809108
4.86,0.01377184891296021,0.07119867799659554,9.8,0.0027813605862903575,0.006979459528930627,-0.008960888290289916
4.87,0.07152715963591921,-0.043938926908847376,9.8,-0.0041946227363863445,-0.005752114786961058,-0.011366621636293197
4.88,0.134291611735874,-0.005955967614293095,9.8,-0.017111869305202206,0.002572823048499851,0.026148375734878947
4.89,-0.08979666275477802,-0.170988645097793,9.8,0.0017745192917973248,-0.005430439039906693,-0.006709327155773985
4.9,0.045212681345262934,0.08361117858203397,9.8,0.006701472400165696,-0.01746654213071805,0.005946588974414794
4.91,-0.18730955884351952,-0.11649789722976361,9.8,0.011500960671168212,0.008132184512698924,0.0075262231541696105
4.92,0.026456021237370748,-0.07901170809105706,9.8,-0.004778473884782065,-0.0064175558199787135,0.0065970757511418345
4.93,-0.017807362704648964,-0.025237257409057454,9.8,0.0010245490015907681,-0.00869258822469367,0.011332194382486565
4.94,-0.07654485105414328,-0.10769624242522931,9.8,-0.0031597771559556433,-0.012186685887674123,-0.01226160283297999
4.95,0.18004294700515283,0.013067475966926792,9.8,-0.008340050894444706,-0.011894926762634548,0.012236095465360461
4.96,-0.2064658323217401,0.18591799068467896,9.8,-0.01506075812972186,-0.012294250672280722,0.00028984471823356115
4.97,0.17282810468094806,-0.14328750525588438,9.8,0.00821629497973028,-0.0027929322469518155,-0.004640214086125593
4.98,0.09153068908999473,0.08801491923921695,9.8,-0.003224157488499303,-0.02426809367147564,-0.0005126935481759145
4.99,-0.12059893905761905,0.0870745986635665,9.8,-0.009388284641933769,0.007012215142299389,-0.003971954394494604
5.0,0.2593923512278231,-0.19577324566056975,9.8,-0.013140518063140358,0.00036736008021129134,0.007964519984470645
5.01,0.008514726885423483,-0.11628491172259658,9.8,0.002198202952739925,-0.0003505011180680966,4.094380005961231e-05
5.0200000000000005,-0.02525480127293922,-0.23708142323498493,9.8,-0.003434922659717369,-0.02338410781264298,-0.02467598879399411
5.03,-0.12832129749804502,-0.0022193811314875867,9.8,-0.004804189379991885,-0.010243813038517844,0.005704490046842892
5.04,0.21905813331804583,-0.05160249198287056,9.8,-0.001827562515275575,-0.01819465099651334,-0.004630131861628053
5.05,-0.11806801303683274,0.024480262034810598,9.8,0.00974979102485682,0.007516840599163156,-0.014945617984149392
5.0600000000000005,-0.050934785466690426,-0.08147819002805255,9.8,0.015410739910133746,0.0005207208283017854,-0.0004543546319149073
5.07,-0.0699465919604069,-0.08200338285075427,9.8,0.006940861242365932,-0.0017407493822490714,-0.0030854946123861
5.08,-0.20136487966646277,0.0984604257958659,9.8,-0.02635743501396396,0.0031333858385466247,0.007416610729568435
5.09,0.10077925284325528,0.15195364764884428,9.8,0.0013583170698192538,0.0041078333295807064,-0.011502507711593848
5.1000000000000005,-0.17783132440238997,-0.1991748026679127,9.8,0.0018818210886045932,-0.011942851330683252,-0.003565774985879372
5.11,-0.0061164531691755945,0.013191444855807985,9.8,-0.010068229656711492,-0.0018720339807042224,-0.02356619021125355
5.12,-0.08001331909143411,-0.09502798632130541,9.8,-0.0027847475758985395,-0.0061741308816725925,0.010845552301772253
5.13,-0.1479313224250556,-0.07810480437387336,9.8,-0.006030473997099533,0.012060987791433483,0.0075494266521740705
5.14,-0.012565732437088467,0.14180506525048073,9.8,-0.001392398526110736,-0.015789416672707293,0.005772316343972288
5.15,0.05497400615934889,0.000824975454446316,9.8,-0.002447485311339769,-0.004431307645724283,-0.00026723557356565564
5.16,0.16475748084598985,-0.05455015900798813,9.8,0.004281467691329172,-0.0020957551463330203,0.004829952787489371
5.17,0.01024555258354506,0.12274410799333023,9.8,-0.01221000118099042,-0.005707632021725115,0.005990162265999517
5.18,0.07200446186795138,0.07498682967354202,9.8,-0.0013808104424036462,-0.0011771383518515454,0.001200957647211459
5.19,-0.10583265815174453,-0.06264857398305906,9.8,-0.005076291854507839,0.0031093462181475823,0.012426029155684453
5.2,0.09406300206056702,0.07506246877121714,9.8,0.02009351804743917,-0.011638176696511484,-0.012907416588312933
5.21,-0.10815481642371155,-0.07186391905624136,9.8,0.007388337513605709,-0.002313343373444462,0.000727640425861823
5.22,0.15444418932482462,0.1000958012504689,9.8,0.014018952474254895,0.0047586116623156635,0.010599393925565638
5.23,0.1597271380870887,0.061217618718745995,9.8,0.008427878449130103,0.007511452737641687,-0.010784351983886133
5.24,-0.0747168968438187,-0.12210175457429684,9.8,0.002882215392529456,-0.010653673325234534,-0.006118968851022932
5.25,-0.005150254672608395,-0.10353784306931216,9.8,-0.0026997167341296807,0.015651661933366593,-0.003914934978527413
5.26,0.15473230352027217,-2.6512335485726774e-05,9.8,0.005290014343115344,-0.0013537852510251572,-0.010882635766862648
5.2700000000000005,-0.0706674467665718,-0.16057694904414907,9.8,0.00854089104006497,0.010581884457812371,-0.00654266677550612
5.28,0.013338307720808039,-0.06617005258146613,9.8,0.004957013000717119,0.012766099707954191,-0.018812981162495808
5.29,0.06827909605553167,0.030816227873234837,9.8,0.0009884586564641745,0.013216586558988613,-0.009847215238413013
5.3,0.11937300040028019,0.028303881130940147,9.8,0.00510641441290711,-0.005173104478213193,0.001045470981426436
5.3100000000000005,0.15316463721290746,0.22272939099098235,9.8,0.000945657322056731,-0.00667014158985399,0.0016722526254552173
5.32,0.09745035140486043,-0.014766035286376029,9.8,-0.023727392151127208,0.003622742809331112,-0.006997326582976136
5.33,-0.06619400700929189,0.10669146402143877,9.8,0.009325226910916631,0.03611240487075341,-0.0023829932257023417
5.34,0.008899695042474426,-0.06650989108157924,9.8,-0.006603082311836966,-0.009176232426651162,-0.01687583180461413
5.3500000000000005,-0.096917867888583,0.026107270575045707,9.8,0.006776561088278362,0.007929190886109019,0.0018316572861495765
5.36,0.015522400401080761,0.016920370469351496,9.8,0.028157606811110153,-0.009905750232819666,-0.0005677371004361705
5.37,-0.11075560030078331,0.02503728739261403,9.8,0.0002629546369368145,-0.00860404853504402,-0.0019692771091142083
5.38,0.1399620335409163,-0.12545921618093597,9.8,0.00034048949784616487,0.011208523601778136,0.005862647949323833
5.39,-0.039596528146182516,0.19197719210048503,9.8,-0.017936263062672566,0.004545967382857417,-0.004960256949314518
5.4,-0.01953430339252174,-0.2761719840201721,9.8,0.006348950417649843,0.0068210903527617306,0.021902592943937985
5.41,0.0955193937583279,0.01625717124830298,9.8,0.0013732443115580051,-0.008598921497303428,-0.011146019683469987
5.42,-0.12605813313934208,0.021702261632992853,9.8,-0.01867146200007579,-0.005172355416564777,-0.00014054278109218023
5.43,-0.04643276635159804,-0.10899044801895807,9.8,0.015856651290864547,-0.011958921665808793,-0.017034909479039975
5.44,-0.0037618123126649723,-0.06772200206451046,9.8,0.010302608354861692,-0.015410391944617057,0.012177447832745871
5.45,0.03507284022003781,-0.1050715449847536,9.8,0.017252504963348705,-0.001526599986724321,0.006899698166930801
5.46,0.010672040125465992,-0.08552864609683898,9.8,0.0047251917424210215,-0.008010308928213472,-0.018971791644389672
5.47,0.11956127006030055,0.08411350231427268,9.8,0.0066462690269743175,-0.00204944958449412,0.010804255693009078
5.48,-0.037734543894182064,0.12662886071687662,9.8,-0.01451884114387993,0.007167984089902399,-0.006893362264595949
5.49,-0.011637804806571391,0.0016400820046270003,9.8,0.0015426976854285498,0.002350112357803964,0.003540092054469076
5.5,0.02736340736843647,0.04686562979148899,9.8,-0.0075641112774816775,-0.0028291408960630943,-0.006868142043543944
5.51,0.09567808741456303,0.017836750343187508,9.8,0.005859766896675068,-0.008956323953714835,-0.004871093372371966
5.5200000000000005,-0.08586584269662116,0.012393253313586748,9.8,-0.014219080216186338,0.00010052034759589896,0.0018459244865774358
5.53,-0.04536750467797576,-0.0020182323339091577,9.8,-0.015489744978866736,-0.009584131924763458,-0.007583791824955965
5.54,-0.14470564693275062,0.04064691654281818,9.8,-0.005640791185348489,0.0009602949963670854,0.009673357190574846
5.55,0.17540576086282075,-0.10208988006247646,9.8,-0.0074467634705930865,-0.0025022270760380427,0.00825856742021694
5.5600000000000005,0.03452787095764984,0.13693525843574483,9.8,-0.0016203442279186695,-0.00947420028526528,0.006708755528276869
5.57,0.024810722097298364,0.0668023699239406,9.8,-0.020969183880938557,-0.007843766864726877,-0.014885732496237668
5.58,-0.031944711384522526,0.05283330915584547,9.8,-0.010607035379396128,-0.009547410442341853,0.005019031618226928
5.59,-0.016705734017545708,-0.14578632136465808,9.8,-0.00010774121940813638,0.02830213891241608,-0.005744647381778505
5.6000000000000005,-0.022076288663015083,0.19509441479428502,9.8,0.00010885513418908553,0.0008022829482971075,0.00021598053549974752
5.61,0.15336027005205954,0.06293873748550405,9.8,0.014573619126451698,0.013038666673661157,-0.021770302210720387
5.62,-0.11906129134978918,-0.10230633496897534,9.8,0.002894840361377567,0.018147453340255512,0.005083400189411681
5.63,0.009127977305868493,0.05504323066199926,9.8,-0.012433793024516613,-0.009444583628619652,0.00776991417279454
5.64,-0.016882763697188285,-0.005466969175674796,9.8,0.0006349397272574823,-0.00486017238383098,0.006360096028856442
5.65,-0.08721062353782612,-0.09925994278045575,9.8,0.0011320908895475585,0.003720036091940177,-0.0017572716235174602
5.66,0.03449552529536084,0.10415994410667383,9.8,0.013043894642155301,0.010592590389874524,-0.0064996895283770196
5.67,-0.02303772030455979,-0.050054931958406726,9.8,0.0031807564285982522,-0.002596557100253106,-0.008597541514962209
5.68,0.1070256390960043,-0.07366769976674085,9.8,-0.0063422667555912415,0.017958968345765585,-0.004506864922967361
5.69,0.13713138301305192,-0.04214838659103726,9.8,0.002722554897522695,-0.013932043495148694,-0.01011777451081366
5.7,0.12653913505162415,0.10470548734678715,9.8,0.018025967486966058,0.009156410418363837,0.023172251708073962
5.71,0.10431721120852654,0.03205874172630301,9.8,-0.00451407947932636,0.0010276263172314308,-0.012821667417894606
5.72,-0.033794291498838204,-0.06178092570009042,9.8,0.015590474759253329,0.012332110828484512,-0.009536258076888666
5.73,0.10420291618327515,0.052194988144904836,9.8,-0.005116516820659726,0.005805990745404708,-0.007144336254071169
5.74,0.008006586049982882,-0.0037955335975239975,9.8,-0.010132282802098571,-0.002446111685737767,-0.0022982462493557378
5.75,0.053745446103408916,-0.008743044059140512,9.8,0.004122011773015479,-0.0012545138092246624,-0.006335521472148525
5.76,0.1649913345116935,-0.13207627065642993,9.8,0.0011373830125809723,0.005609802934201716,-0.009862202143809375
5.7700000000000005,0.17610738336425455,-0.04349151168084162,9.8,-0.013862845123922362,0.0014700952576368756,-0.0022767157776458656
5.78,0.14699317909199006,-0.06517522361096591,9.8,-0.005374945923935873,0.0008280635375272783,-0.0027801040181998555
5.79,0.03963127192290533,0.04195311548631922,9.8,-0.0025742972751426193,0.0011445185613251695,-0.016054317314393333
5.8,0.248994518215813,0.01564935407293922,9.8,-0.012415882013246407,-0.00017645301074731206,-0.024527950950504942
5.8100000000000005,-0.022426845245957686,0.20135037415327758,9.8,-0.005147409905948109,-0.0018380698947246155,-0.00803194388813988
5.82,-0.1088333691350396,-0.13246624788595965,9.8,0.0013810681397604556,-0.0009657143118434801,-0.0072708323532833284
5.83,-0.008883935912897425,0.03623798590199327,9.8,-0.008214407372903314,-0.010621886545920962,0.008301521400866515
5.84,0.051161562038511826,-0.004807258711614679,9.8,-0.001727480662590248,0.0050648369387779925,-0.0014955960718002529
5.8500000000000005,-0.11972560196656089,0.16477474801022332,9.8,0.011356463572999673,0.003487162243847982,-0.012627928922075931
5.86,-0.11010928558275804,0.13175561864667074,9.8,0.011148427390234788,0.004252092383454899,0.012594454842192244
5.87,0.030626377762448028,0.11565437618339797,9.8,0.002569648119387164,0.01227438735510015,-0.0202665501193843
5.88,0.017925892604761084,0.1564755974749033,9.8,0.006610007092334314,-0.0057825156034019025,0.0030146386646661668
5.89,-0.00153204037939778,-0.019648189790052742,9.8,-0.007196147741282437,0.013378999475868965,0.0042797955496816495
5.9,0.01744049619169645,-0.07054784110836702,9.8,0.004516556166341708,-0.002744441409368256,0.009625743925208746
5.91,-0.021706439385879073,0.036974844879014444,9.8,-0.018308993688586767,0.00974028162120762,0.007900703126106898
5.92,-0.0011430666088839807,0.0064710039843824015,9.8,-0.0029857556077112673,0.010434610407327589,0.002181896994691038
5.93,0.010432047655915055,-0.1682364918861631,9.8,-0.006123640306238088,0.018363717598756296,0.0034517170287305856
5.94,-0.006484772770901426,0.13502332858670923,9.8,-0.001134059569567527,0.014463640345860678,0.0011104305102598857
5.95,0.004072507166460486,0.15275262007823706,9.8,0.0075077609486575375,-0.009412808267295973,-0.0009918230361655915
5.96,-0.06645737220082909,0.18771997394247833,9.8,-0.0002743971217415964,0.01504072052670313,0.010944914588356348
5.97,-0.04669539711162865,-0.14303765530678278,9.8,-0.011957649104227887,0.001973958404558143,0.010280781225252993
5.98,0.03983924367817098,-0.1586089700351143,9.8,-0.0003104050745297178,-0.004338850216746236,-0.005954416950358427
5.99,0.07798919315993663,-0.0011740806497610853,9.8,-0.006670390586694143,0.0035818729278796484,-0.011048850623504627
6.0,-0.06750080534374377,0.07213106050638714,9.8,0.0154096062326226,0.00200082519327629,-0.006425315201000861
6.01,-0.06475170741542181,0.08332762902951626,9.8,-0.003277526325224469,0.005385493392501113,-0.00632371320210517
6.0200000000000005,-0.12174973810564904,-0.07155226025455408,9.8,0.011297460646774378,-0.01682252616902795,0.007498740710403144
6.03,0.02175559108592185,0.0773697984149484,9.8,-0.013974024478598699,-0.009797024113842588,0.010899670450839572
6.04,-0.006630740244019141,-0.005196189118253799,9.8,-0.002508032451890938,-0.008274980060054327,0.022009306581113993
6.05,-0.019541394321282254,-0.10514195315201343,9.8,-0.012969628772646007,0.011123666653309924,-0.014295181309649288
6.0600000000000005,0.04434558074827769,0.036355100846625944,9.8,-0.0013602702516916237,0.00011033929494081349,-0.007115391640385956
6.07,0.007920031742325103,-0.13546172080709212,9.8,0.009040105979427799,0.00786813057553697,-0.006597130028477873
6.08,-0.22485458413304418,-0.1345058784544957,9.8,0.008693945917932312,0.006426441228298004,0.0024700277924566247
6.09,0.12654631066666594,0.07499076660102245,9.8,0.019682982655391455,0.006086857520150849,0.027776449474792228
6.1000000000000005,0.16919713077602247,-0.047298513030673534,9.8,0.007630778419795083,-0.0007445374022882562,-0.009883901521549996
6.11,0.04000915019911355,-0.1613790635959482,9.8,0.007097212688102051,0.00508510826029468,-0.011270900699585404
6.12,0.10205724228793474,0.08624540867109098,9.8,0.005143704533751009,-0.009073789452729039,-0.0015067762858910682
6.13,0.05304228278164415,0.04663256967769849,9.8,0.00019568179937343768,0.010367909022280226,0.01020531603589862
6.140000000000001,-0.036911595691359454,-0.03887327457167944,9.8,-0.001243374325351264,-0.005150476865283386,-0.01339070166944919
6.15,0.019398386723618953,-0.02979871132702963,9.8,0.0032763312864858662,0.006947453165225604,0.011281940232522573
6.16,0.037374360701966224,-0.012152252291613187,9.8,0.005852965715529115,-0.011799964832253875,-0.014190524579252288
6.17,0.0857792996076408,0.07018273605625973,9.8,0.006892965162517687,-0.001672319216650761,0.006962050202783231
6.18,0.001607656966770631,0.12091674977630246,9.8,-0.0036496899141676975,-0.01706383547422185,0.006547877193328594
6.19,0.010490614480933563,0.12269655603565786,9.8,0.0075380069313675645,-0.01455833978128896,-0.010196382242891107
6.2,-0.09856180807649075,0.0954640796104866,9.8,-0.007080507648635529,0.004027121418606276,0.01844893713453039
6.21,0.07904876893302043,-0.1608759135398779,9.8,0.009024869782758946,0.014227777372239717,-0.004155378966115119
6.22,0.0405048562986604,0.07418024651464454,9.8,0.015339046370811949,-0.005999548223136105,-0.010576752438336674
6.23,-0.1268928782240066,-0.09834961327692084,9.8,0.0028369599571787573,0.0006748058351124028,-0.01879211577199282
6.24,0.05518334078670685,-0.049212210184810035,9.8,-0.006809330659811426,-0.00022798639650714877,0.004584900770930704
6.25,0.03903314900390354,-0.008076637793879887,9.8,0.0017597272179608555,-0.019428767840341043,0.012731744460776984
6.26,-0.20883281099596004,0.0344173079544211,9.8,-0.005279561389162186,-0.006261896026600319,0.009237608419467877
6.2700000000000005,0.030644135870720103,0.10009820966099779,9.8,-0.008744679121207048,0.013375749243120325,-0.001268956309101635
6.28,0.08021679326129366,-0.015977026303099547,9.8,-0.01783586395843207,-0.007810048367461536,-0.0025482870503409478
6.29,-0.02757859734793927,-0.061963960678634245,9.8,0.007209281359797646,-0.003503476131558079,0.007992560346798778
6.3,-0.027199726374104102,-0.056701519878301646,9.8,-0.008672470384762885,0.008882187652073534,-0.004528476885238614
6.3100000000000005,0.02824964590031986,0.02643842698974553,9.8,0.009498153548748186,0.015496127537036226,0.0029765869346967708
6.32,0.03454406854274242,0.0061927107644121964,9.8,0.0026856125625583293,0.016136922745887284,0.012847716760311257
6.33,0.04583478463214361,-0.11617986154219782,9.8,0.007548544746584725,-0.0016916988671306188,0.01522320474547369
6.34,0.03645176646963946,-0.1404312922075804,9.8,0.0025056110978379452,0.015337544908558827,0.009367016020649125
6.3500000000000005,-0.020799237248382212,0.014166832630589344,9.8,0.01350303333012023,-0.006609149026415135,-0.014371101010702691
6.36,-0.068839074295601,-0.006627002798118755,9.8,0.01694745555869634,-0.000836265712973433,-0.015489480442540567
6.37,-0.1075131163969261,0.06639836475392101,9.8,-0.010784740268144475,0.009333394133689922,0.0006529887433669761
6.38,-0.1333288488301112,-0.0731444651228605,9.8,-0.003408548312860349,0.001959783783558815,0.007942357839168458
6.390000000000001,0.010589159226374182,0.06958274293732668,9.8,0.008952699164221065,-0.002363476514675673,0.012528881205527627
6.4,0.03859125035324873,-0.13363801714300483,9.8,0.004561141067532622,-0.011820471552137668,-0.02049946267148409
6.41,0.0504703426374572,0.052556666366839117,9.8,-0.0016978364303411376,-0.006597062574326528,0.001118891194640102
6.42,-0.09381006635311828,0.00908880245594248,9.8,0.012711380341340419,-0.008568383888397481,-0.010218191615972398
6.43,-0.06054041744774559,-0.007032568622609949,9.8,0.005884243424565839,0.001194498892207706,-0.000745948266654965
6.44,-0.09215355078174803,0.04038294724389051,9.8,0.010769488531946049,-0.02100060788635779,-0.0034691206989964423
6.45,0.0934575141085055,0.06828456955728461,9.8,0.0019297460587888464,-0.009915438342781243,-0.013889772296429658
6.46,0.11865679237017475,-0.12511920217309858,9.8,-0.005209205268699314,0.008388458431020637,-0.005806262264102134
6.47,0.0017711774049231051,-0.1777752742664104,9.8,0.010517233466023014,-0.006439325115847916,-0.006184876196468634
6.48,0.10196587208723631,0.043017171756966635,9.8,0.0023231826945576102,-0.003644680420950971,-0.000543082095230238
6.49,-0.037254521122177864,0.026705912409686523,9.8,-0.003824011040677985,-0.008241362542327978,-0.006569603180448096
6.5,0.07502265532357061,0.09101438600404274,9.8,0.0011540882248613454,0.026553710553889612,-0.01076678188239221
6.51,-0.029748419060955558,0.03464878172936367,9.8,-0.008524198992124823,0.018975912224275245,0.017338859681470833
6.5200000000000005,-0.042266134417182716,0.05453996162019148,9.8,0.00046774175253846316,-0.00042502530681970955,-0.014986765017194696
6.53,-0.10716741763670862,0.0999555939448217,9.8,0.002828893234884868,0.009524120891691176,-0.010542392027532908
6.54,-0.09487397237044877,-0.02054436246168524,9.8,0.0038849531485666724,-0.005533823459428187,0.008073267314118395
6.55,-0.07232885969570367,0.003536192982806668,9.8,0.013434643053674868,0.006997377535402237,-0.00830825271663763
6.5600000000000005,0.02417211715190178,-0.01611828706877177,9.8,-0.005041204273897128,0.008023168890021817,-0.0029653465342242254
6.57,-0.059931320581758096,0.054995729692645524,9.8,-0.0040058761909288546,0.010164909452666498,-0.0004780684160767972
6.58,0.058232525977136386,0.06325102539998494,9.8,-0.008746764059619588,0.009073089964671703,-0.002131628645228365
6.59,-0.03608555252012929,0.05661209888294282,9.8,-0.008117450236775296,-0.0009630198342910379,0.0011156713489743988
6.6000000000000005,-0.10339616655909248,0.09228917202272242,9.8,0.010425704846651033,-0.00660399648987261,-0.0022195434880048315
6.61,-0.03467054507393028,-0.0066248557319037275,9.8,0.0054052178618022115,-0.0031927724107241808,0.0053144321366631496
6.62,0.01958187334164016,-0.010121727443038183,9.8,-0.009407502937750466,0.0034573701506258204,-0.0074381909613047805
6.63,-0.028974018241307416,-0.06312037630790693,9.8,-0.003441252441090624,-0.006618442369561949,-0.0026223785433680566
6.640000000000001,0.0994131992562595,0.1664064366780345,9.8,0.006558422126270572,0.004453327342762061,0.00663127688274494
6.65,0.09751284678981863,0.0682345575052985,9.8,0.00043595138595398786,-0.015858591516948548,-0.0034370712273356354
6.66,0.13121752171802462,-0.2557435851425194,9.8,-0.013560927834100987,-0.01505574778823462,0.004209504088236307
6.67,0.08225792001503938,0.025923581145804543,9.8,-0.0006565061842272009,0.002840137719260659,-0.0034111466547490903
6.68,-0.07153304934291392,0.003912623480905105,9.8,-0.01698381355276312,0.01342368469546753,0.018535283547447982
6.69,-0.12789398613901085,0.08390398370728334,9.8,0.006075663936593616,0.008592140563457366,0.01744439907418294
6.7,0.12470454852762264,0.1410258968786912,9.8,0.0021729488921185974,-0.011293337753517934,0.0023524379561694997
6.71,0.039591678116134454,0.09586056792098528,9.8,0.014242830558675007,-0.002570621609906264,0.004306381544889776
6.72,0.008889880660957512,-0.18969759477995196,9.8,-0.010463520008568886,0.005165831365579739,-0.008224444013931265
6.73,0.1482370811802249,-0.08319392529435579,9.8,-0.007080382209406816,-0.017930227986012678,0.01225435937853281
6.74,0.011816544354059941,-0.09040054166102843,9.8,-0.002435073545581483,0.003979845028772588,-0.007276738179160699
6.75,-0.07710568666322438,0.11530505448178839,9.8,-0.01000548021440163,0.002224891422976684,0.006642653435747428
6.76,-0.002163800030221242,-0.05357508913027029,9.8,-0.01698626681403819,-0.003237185060757707,-0.0006603459227023582
6.7700000000000005,0.22729602990809972,0.002617447281986125,9.8,0.004191165419448112,0.0041407790586603325,0.009912966937847562
6.78,0.03905630074242215,-0.015232151340394729,9.8,0.006999657352706655,-0.006657006542934358,0.018900183380567533
6.79,0.08461937316890011,0.03485123805409804,9.8,0.005214493616426427,-0.005379606831511507,0.00524715825716071
6.8,0.005358806543127263,0.07624570232767129,9.8,0.017692448608039504,0.003951108338114832,-0.00775926785193424
6.8100000000000005,-0.015458334578712927,-0.0884857338557889,9.8,0.01083473216720049,0.0002055451965781027,-0.016486403824761468
6.82,0.0889842544572893,-0.012319242653033772,9.8,0.0008903348007756126,-0.0015267612978942628,0.0007372122996931249
6.83,-0.13529928040185682,-0.15186444493866041,9.8,0.008376116748091682,0.002357063571581079,0.0029612761898302965
6.84,-0.03883217108236031,0.13757499126318745,9.8,0.019159554923526338,0.011641772028375472,-0.009441617959297943
6.8500000000000005,0.18646771656497507,-0.13938821949541852,9.8,0.0051195713035341,-0.011848579860633071,-0.01618478106563636
6.86,0.05339720139003611,-0.052894102532312894,9.8,-0.005856990494801915,0.007754397786113202,0.0035032927243527903
6.87,0.04587675347714501,-0.14316611140818133,9.8,0.014236767544903049,-0.005999087319202885,-0.010078626229485745
6.88,-0.008867243388617026,-0.022776732502410097,9.8,0.01566381256758546,-0.0086086413502625,0.021633361796565744
6.890000000000001,-0.029307770709365757,-0.12785276472889892,9.8,0.008510447132111035,-0.013019810172468279,0.011992014315483093
6.9,-0.07023590314079584,-0.0007215930588608834,9.8,-0.007828184767539305,0.01796378584171164,-0.0022746809171674326
6.91,0.08910970181229068,0.06378017283540734,9.8,0.009961964597411806,0.004643677924599915,-0.006667369994454798
6.92,-0.005257121054192271,-0.20803257132588437,9.8,-0.017923044453438716,-0.01044623399259242,0.014421785414249204
6.93,-0.09432684213676569,0.14077602796098643,9.8,0.005122869864117648,-0.009650070567951266,-0.028392361210510905
6.94,0.009873421888056677,-0.03689742284966817,9.8,0.00909641107449121,0.004011015365665857,0.00010166569056578967
6.95,0.15154379327280654,0.02703779522985815,9.8,-0.010423769066266964,-0.009476438903673898,0.008909206372013439
6.96,-0.16226855411698085,-0.0478862974749311,9.8,-0.029642537535166408,0.02954083569817854,-0.009024347137367722
6.97,-0.18621889986854456,0.16086229461024218,9.8,0.009422132992857497,0.0009494686058017902,0.002883624314073031
6.98,-0.1616182456752804,-0.1603087238175973,9.8,0.0005908358075657614,-0.005022145922570871,-0.004521020842313532
6.99,-0.11454319146962953,0.1310319408557654,9.8,0.014179512374275652,-0.0011698732987990299,-0.0044470748837908474
7.0,0.0842856353496999,0.18442515494460174,9.8,0.01422725910050091,0.003189801277581412,0.006809611746613689
7.01,0.08379199790329404,-0.0013089937168429989,9.8,0.0011714602090203798,0.0017156051105887173,0.012357135188232834
7.0200000000000005,-0.002748723776454109,-0.08689738197189462,9.8,-0.0020037195774680124,0.00923749184344603,-0.006208436474145337
7.03,-0.060559199184817517,0.0026443912854888577,9.8,-0.028469120845768928,0.002390476460673848,-0.006422736428322147
7.04,0.03175870278552011,0.11042333418177726,9.8,-0.005141358169298419,-0.016964576619411354,-0.017662924261845868
7.05,-0.04200443845910404,0.09481080904515116,9.8,0.014435347232238048,0.016181478766842946,0.007014788915681208
7.0600000000000005,0.040273922767867565,-0.03397351960510919,9.8,0.015486166343040631,0.006990297399850219,0.007754470198460257
7.07,0.0301787482752801,-0.11369401526752315,9.8,-0.013619465242359172,-0.009714894191680867,-0.001814690944642951
7.08,-0.130342122834772,0.1270794913222959,9.8,-0.004492021172646004,-0.01382925963764764,-0.010511973354828577
7.09,-0.1343114689199163,0.0660356672836982,9.8,-0.025956930049837755,0.007552982744328898,0.017495625643510555
7.1000000000000005,-0.04490210981886372,0.10025809560019501,9.8,0.0011116369473524667,-0.002414478293835005,-0.013283909146587527
7.11,-0.21615731608898764,0.04114731506593042,9.8,0.008960294504856726,0.013462292883094798,0.003710479227728227
7.12,-0.16630822771634912,0.08218693103958294,9.8,3.2367229882550506e-05,1.6654218337058973e-05,-0.01863851533410923
7.13,0.16356480659305112,0.04448514356774566,9.8,0.0059795309797775024,-0.013624654195772148,0.002434403945996171
7.140000000000001,-0.06889097142441948,-0.13521311348923012,9.8,0.012741329995393966,0.0017225052801242632,-0.008942113860553925
7.15,0.05860489073206193,0.053583068077547084,9.8,-0.010630944631526883,-0.003995867474074315,0.0023695653599944927
7.16,0.09484102580032502,0.051178468624724374,9.8,0.011366062166792255,0.012145992893915878,-0.014720839792199705
7.17,0.026693323400210345,0.05149023002347658,9.8,-0.002402800063639629,-0.008626768668745247,0.003091691820120915
7.18,0.20753141674972342,-0.0005456390819177041,9.8,0.004471053094234974,0.0106064661005037,-0.01051206652408483
7.19,-0.19090530837698833,-0.07690194798009677,9.8,0.010014508028007659,-0.00402486396520833,-0.01604161470632166
7.2,0.00023183661559542115,-0.016613966067015592,9.8,-0.006261611033730123,-0.005870481273670587,-0.0002855449660622288
7.21,0.0200872089725532,-0.09310354157113526,9.8,-0.002890702728521275,0.0051514099987072706,-0.0034841024229029104
7.22,-0.05302811815602863,-0.03953841731177198,9.8,0.0008515126100512709,-0.005080617772293144,0.002780336263261998
7.23,-0.2490776269081827,-0.04754184341670859,9.8,0.007392613889923487,-0.005527935113292237,0.007804077789256875
7.24,0.08157683025494485,0.0791362147111357,9.8,-0.0035849180286902033,-0.007013162464102645,-0.0010550039947979494
7.25,-0.018427284793832068,-0.042506907640156834,9.8,0.0008744610976893655,0.011528468712854366,0.014544069983537496
7.26,-0.05871846074298729,0.21622385287604975,9.8,-0.003837949606315342,0.014530157977257657,-0.008427977491656158
7.2700000000000005,-0.005287365300636997,-0.13689668766860083,9.8,0.0003953397384479126,0.006667005679973465,-0.0032786914595566447
7.28,0.062038652630216296,-0.020575423939943056,9.8,-0.01550980604459855,0.004156064673313744,-0.010221161579633795
7.29,0.08498978806743791,-0.046501435349365905,9.8,0.0069227376354510884,0.002380207010357971,0.0020644782109278136
7.3,0.1002856530719995,0.03944369836126197,9.8,-0.010982909276495388,0.0014334261913100577,-0.000202871634233925
7.3100000000000005,-0.061440056612526564,0.2708115746034115,9.8,0.013966754328948035,0.015686213038178718,0.002374041618186136
7.32,0.010040174990478413,-0.16903505685457615,9.8,0.0192188044376508,0.009510399353666717,-0.00586575774956871
7.33,0.06924437541087103,0.07113433651031842,9.8,0.0002615838321122472,0.003662017070178415,-0.0019634084281604184
7.34,0.1882830192706241,-0.08049837170494338,9.8,0.001729422907617184,-0.005170339442019437,0.003668796974929082
7.3500000000000005,-0.11407433778405761,-0.06388064948135366,9.8,0.00024767413487188783,-0.012238136026795845,-4.224585208604856e-05
7.36,-0.17362114651776228,-0.006741220533022081,9.8,-0.002236655709362326,0.004843390456706439,0.006913105089998856
7.37,-0.025678287376039693,0.137417784650956,9.8,0.0035906351066457526,0.013379448685485091,0.008264320157335718
7.38,-0.03717242111736526,0.08541731123931401,9.8,0.013457632913568385,0.007042390314794559,0.01644544266675485
7.390000000000001,-0.17008443004672358,-0.02403837208561395,9.8,-0.0010016109157195614,-0.006382243007102257,-0.013996529942376774
7.4,-0.006799569106401199,-0.11497971129851695,9.8,-0.01102669711939905,0.0058255784121519,0.00246001005099815
7.41,0.013366148706913002,-0.06137791778902793,9.8,0.003747577680191336,-0.0015137077498037477,0.004086521725066087
7.42,-0.020676337855172273,-0.08590964037245276,9.8,-0.013853552288922091,-0.005625428844287184,0.00431996888978612
7.43,0.005628412577873168,0.01824401322390764,9.8,-0.0058670226433573305,0.005789098701577871,0.0038703538844827357
7.44,0.13843802135410158,0.09732465217159715,9.8,-0.0014342069260031265,-0.006002042715480572,0.006901292738818534
7.45,-0.26524009935926585,0.04829635823430603,9.8,-0.0011057810545437804,-0.009288275659760517,-0.017895397986001024
7.46,0.1279294612607629,0.26382838994138497,9.8,-0.01939136112472404,-0.0046289508858762705,0.006295166282307286
7.47,0.04593338145242235,-0.09111303356499151,9.8,-0.004491328400656715,0.0092007325295726,0.010291163574444592
7.48,-0.3656227183745141,-0.035217215862949056,9.8,-0.001572268545940325,-0.006909593007957004,-0.008353477640913312
7.49,0.004453198225086199,0.16643867415724733,9.8,0.013878741460109452,0.0011607953804561191,0.019969554518362385
7.5,0.05742151323869815,0.10488728160163859,9.8,-0.008193339215591698,0.018445767722578044,0.010218931822417215
7.51,-0.19986536026122803,0.10378597369292684,9.8,0.0008051100620219906,0.0029164067363602482,0.017935409792351743
7.5200000000000005,0.13507999187641942,0.10221387091288373,9.8,-0.009167337838781603,0.017819175258855652,-0.0031309649361082126
7.53,0.13390003633367395,-0.004839795419978672,9.8,-0.013215616349642119,0.012552453897965585,0.016948777287570004
7.54,0.12787405922262404,-0.058048084499105035,9.8,-0.02258169144305669,-0.006635160004168276,0.015097503564330782
7.55,0.019966691003245326,-0.11432377410200721,9.8,-0.013631395664051091,-0.011008798424115382,0.0008096696982830416
7.5600000000000005,-0.002529522581924899,0.12010103663242395,9.8,-0.001610009706794637,-0.03069278106678504,-0.02787786015105227
7.57,-0.10989049782309597,0.12687487373801343,9.8,-0.017359606915367125,0.012361876014045455,-0.0032788152609741967
7.58,-0.16492383983503356,-0.03535952689593294,9.8,0.0017102664079947083,0.005780640893533029,0.0003695121237965065
7.59,0.021828933294161523,0.06870796840434709,9.8,0.015275126453487045,0.021961428072000605,-0.012839362495728422
7.6000000000000005,-0.0312291195269719,-0.03232123587832391,9.8,0.008118470370960718,-0.0037060159854542564,0.014367475215464179
7.61,0.2107466878236183,-0.0030748058445797797,9.8,-0.019127409281623257,0.002494617884752582,-0.008013907416013334
7.62,-0.03500877613328115,0.015633661855999355,9.8,-0.008336442404788117,-0.006144179235368926,0.0023895504092873348
7.63,-0.0883061957877872,0.016580791687907766,9.8,0.019774836247205878,0.010382817204160741,-0.013770066653705351
7.640000000000001,0.05786059201118715,-0.01555845258418625,9.8,0.0046956818521985974,0.013567083224060302,-0.016950406924140383
7.65,0.01243616689151447,0.21543638845806115,9.8,0.0011351885521024257,-0.004142962802263974,0.0005627120175281125
7.66,-0.00959962002679994,0.05567082512390792,9.8,0.001886968894649944,-0.01194634882968403,0.007015310936548842
7.67,0.028773603155642098,-0.0043994256440082575,9.8,0.006063459402816449,0.0239420136718015,0.017616245407401445
7.68,-0.06650657086895165,-0.03630995734941665,9.8,0.016498062469438763,0.00989354428256412,0.0110225480949288
7.69,-0.0004537059677536675,0.0987735286241936,9.8,0.005100353626898012,0.00839272067313198,0.0033400250535475886
7.7,-0.11774996558463738,0.05813465463753651,9.8,-0.0002283798137032624,0.016487412326552053,-0.013099950925013388
7.71,0.040882989008063794,0.17654336541723004,9.8,-0.0017043445188270445,-0.0006313158357593227,0.014666571455642624
7.72,-0.014011189625902682,-0.2361233474192954,9.8,0.016219152957644926,0.0032022227014214116,0.008102351023917612
7.73,0.1338873099517439,-0.0738602653641009,9.8,-0.008315472492034274,-0.014477286331717751,0.022714097454705953
7.74,-0.15728354709807588,-0.006114591055735172,9.8,0.01602946748032756,0.0012183501576266105,0.006749946405841116
7.75,-0.08885603573065935,0.08856547223016409,9.8,-0.0028699513808923384,-0.013235580553109715,0.010810796297089949
7.76,-0.1910915854183835,-0.12051771120647997,9.8,-0.004151053627346432,0.004987202611814899,-0.0016577229058332649
7.7700000000000005,0.10770357152827786,0.0772802040561985,9.8,0.019962811695337798,0.002457434762010183,-0.0014286673342623663
7.78,0.06487067342413826,0.09534457650357576,9.8,0.005698157540907345,0.01550664453213476,-0.008769706961077643
7.79,-0.12247201421766284,0.1700115750559065,9.8,0.00687723022122194,0.008261443538258974,0.0013368907423832014
7.8,0.09332461180903352,0.0737062196040432,9.8,-0.004678334440662453,0.00731669164681652,0.002416312416136884
7.8100000000000005,0.026094060598612218,0.0801956187529527,9.8,-0.002686233557215426,0.00605126368858638,0.0035997276920922416
7.82,0.010418668382182071,-0.0066694201414668475,9.8,-0.0056922112109441736,-0.004984455943152937,-0.0016230861114474924
7.83,0.1661173551263828,0.004522458465432011,9.8,-0.0013144859700906133,0.015815480299563204,0.0166462223926131
7.84,-0.034263368030345055,-0.043148017604157624,9.8,-3.1098511864330394e-05,-0.017747116555455827,0.0016264089617353808
7.8500000000000005,-0.11291598341289946,0.0034282237503389214,9.8,-0.011113805428059951,0.003644729270924097,-0.00630927733997415
7.86,0.05762311505382248,-0.1355573746106658,9.8,0.014304301281250258,0.010498480931913697,0.011828920293478894
7.87,0.02937704869210127,0.20490071714837482,9.8,-0.003644130144131102,-0.00783282455336861,-0.006270028188460176
7.88,-0.07586856003529738,0.055557779921992706,9.8,0.006604408493542792,0.007259568951070847,0.003912081949247147
7.890000000000001,-0.05262813832202476,-0.15634254058194888,9.8,-0.0063734326040038,-0.012801678108604575,-0.00935227414452385
7.9,0.10618765685412149,0.0846793116064931,9.8,0.026532252629248295,0.0002043512878691881,-0.006093373317233957
7.91,0.07006018990543131,-0.002991248980619281,9.8,-0.006600931289892657,-0.003700919487321614,-0.007613070718072107
7.92,0.08021361700202617,0.05811686349537731,9.8,0.00017506447458272273,-0.024428933484864128,-0.002591056521653832
7.930000000000001,-0.07990576653954247,0.02370121996246273,9.8,0.010322415632855778,0.004678256396413339,0.001341205568745996
7.94,0.20696229662609703,0.18927299342923426,9.8,-0.012660931347725935,-0.00014199536998001137,-0.0007899393050376667
7.95,-0.017815529498252446,-0.03651477546938305,9.8,0.009987620617237498,-0.002651459788404219,0.0001564756659922564
7.96,-0.019317555255321944,-0.025395390002305226,9.8,-0.005594263179415634,0.01194966726174259,-0.003247663877417381
7.97,0.08928146723659401,0.00011071843390263262,9.8,-0.005397273762672926,-4.470935494041216e-05,0.00940647599885275
7.98,-0.04323754582074937,-0.02713165255908211,9.8,-0.01595746099295127,0.0007598207595476932,0.0033435722522664065
7.99,0.13466398301737836,0.041462833652885764,9.8,-0.0053141621946899255,-0.010110695376735155,0.010553406893155023
8.0,-0.12682903601120918,-0.0654338093044762,9.8,-0.007144524298377117,-0.00030721802690535706,0.0030925464453651985
8.01,-0.13740269649383255,-0.0628291850805668,9.8,-0.0027751904985013815,0.005260736645763734,-0.018120447996272653
8.02,0.12252863180581569,-0.0051069079394752345,9.8,0.0010471634326267517,0.008636596311847454,-0.009762264651571878
8.03,-0.03246874609533603,0.0989305785012188,9.8,0.00392144639071351,0.012452688291020735,-0.0033567330761399543
8.040000000000001,-0.00408892092745644,0.024547368854480167,9.8,0.0015601411326437212,0.0012582241543027096,-0.019660715462684445
8.05,-0.11057279536454834,0.04300785945233753,9.8,0.004894164051562327,0.015723967133522587,-0.009919055943721894
8.06,0.0641329451371815,0.06672471741853518,9.8,0.007899005735645311,0.014581238730365993,-0.007471722671154132
8.07,0.0017668714283700791,0.027107095600106008,9.8,0.012150462421847981,-0.0035724788919383756,0.006306378862376377
8.08,0.06589136777017268,0.029104563342429418,9.8,-0.006382078579602988,0.015859896467081348,-0.01353811645385126
8.09,0.036078456872241156,-0.12159521356177933,9.8,0.005106927007081469,-0.0007109947911458438,-0.007907135504584913
8.1,-0.15301544754033652,0.041063018629432096,9.8,-0.004920757905600197,-0.0033135779984894455,0.002046163335531865
8.11,-0.13233459335999972,-0.0052452242602400775,9.8,-0.0007984469446205178,0.0033833123731280847,0.013359821337707262
8.120000000000001,0.06172648395027247,0.1625043444500801,9.8,-0.0008970129773185482,-0.006418041472109725,0.01374317956183876
8.13,-0.07625467519903109,-0.1135110263448326,9.8,0.012319683602824863,-0.010040123755753116,0.0005989181467109762
8.14,0.10212847703073576,-0.07196671930547681,9.8,-0.0003729331433979697,-0.00959224596327597,-0.00197240175794834
8.15,0.118205991639454,-0.04305058265957045,9.8,-0.001889876263144674,0.002018159314584722,0.007882241330162985
8.16,-0.1967213604184972,-0.07392318475354025,9.8,-0.015780151293717647,-0.0033082690670339417,0.0030708612954264782
8.17,0.04903634947051236,0.13884821574916703,9.8,0.0083872850228128,0.008347190889360407,-0.0034204230716248785
8.18,0.17458987856301877,-0.0170036772071766,9.8,0.00770159722568099,-0.0003613168739178482,-0.002725723810570558
8.19,0.03013269890164882,0.019214338968764694,9.8,-0.009213110401195742,-0.0026397768964815083,0.012714734084979125
8.2,-0.07960270900057043,0.06672807300192155,9.8,0.002266604907187008,0.013083077155791824,-0.0030377606582969634
8.21,0.09509478175933332,0.034734496654541695,9.8,0.011007071786375886,0.010064785398206069,-0.014005959874594381
8.22,0.010614236535637004,0.015120514639451695,9.8,-0.01019451665983949,0.0025184606271399642,0.018276585804373312
8.23,-0.05183539422337479,0.08931394456543643,9.8,-0.008142683764297397,-0.016945600758110375,-0.005620341577207635
8.24,0.0665141434298016,0.2736410407857466,9.8,-0.007395927642473938,-0.0014882275685624933,-0.0026842856117600088
8.25,-0.07207297013657891,-0.03717805392994716,9.8,0.0014608956075895408,-0.01549491823350384,-0.011568116863956188
8.26,0.0023209919946614237,0.012458477972819397,9.8,-0.002856879235296836,0.012140872607956741,0.0014612155617586494
8.27,-0.2297271197772718,0.22173715341321434,9.8,0.00257073923312164,-0.011724383114698205,-0.001392284595622216
8.28,0.11696593733583893,-0.049538506854275334,9.8,0.010441434884409023,0.008881798323374707,0.0035459772461359975
8.290000000000001,0.08446697934294803,-0.11330900218312777,9.8,0.011214252161279912,-0.009221545991808995,0.000705000195814644
8.3,-0.03667137256885081,-0.01588553220763,9.8,0.013176446879908446,0.011620484488543501,-0.0025904751226949307
8.31,-0.1555933999452599,0.09293490225002628,9.8,0.00591158286710253,-0.014961631532640338,0.006290578984697612
8.32,-0.2137333037563599,0.09871140135060406,9.8,-0.003805483069998876,-0.010995402721988916,0.0008605781796781
8.33,-0.03882495156469459,-0.07089109294746572,9.8,0.026302527637457534,0.006566662283764438,-0.013901899749476221
8.34,-0.12291540536022455,-0.06499109953879294,9.8,-0.017746345756348696,0.005720886514921448,-0.00877672109855382
8.35,-0.09171259124704113,-0.056138859690035306,9.8,0.011444032254083112,0.021131595333390672,-0.017869108055568416
8.36,0.07155943448176028,0.08579741570077082,9.8,-0.02167875788037947,0.023043256762226644,0.015862159924298694
8.370000000000001,0.0002347497654108272,0.02421016396974024,9.8,0.020110143893738754,0.007789930097888412,0.010051216105927631
8.38,-0.07553578498800428,0.08688302540916198,9.8,-0.00353460720418869,-0.005862182544224806,0.0017064388513560384
8.39,-0.1405738425330008,-0.03396720135070765,9.8,0.01266380150236277,-0.022540900503589006,-0.004303552450474863
8.4,0.12270431016894978,0.12811331916133586,9.8,-0.012977073378044237,-0.0009100842666653082,0.011013717038246511
8.41,0.021817863150180403,-0.22045214198287355,9.8,-0.013198653741129749,0.00641675185287932,-0.006662694028381607
8.42,0.05474455405163059,-0.03635471138948886,9.8,5.7385284127365346e-05,-0.0101812668316298,-0.005811406517163924
8.43,-0.07681771754747249,-0.2500603129296586,9.8,0.0006584833586413526,0.002744320500085583,0.0046277206091872155
8.44,0.07449089617556086,0.15933888036533028,9.8,0.0165314363857713,0.017103262583719067,0.002053308120014013
8.45,-0.109851373286798,-0.002666561950485211,9.8,0.000779754795978099,0.0010871000368939266,0.00927869712051254
8.46,-0.08652868599850269,-0.1997965438546079,9.8,-0.006080023629404612,0.012049364796515772,-0.007064561132807345
8.47,-0.09064473850274335,-0.07012985016902556,9.8,0.003524742552419109,0.004066244395847716,-0.004737463125474767
8.48,0.11269836605221706,-0.14978164940493818,9.8,0.0024388400540245633,9.608602741205562e-05,-0.003060129831643166
8.49,-0.17923991248286184,0.06355091030562553,9.8,-0.022363257437042962,-0.00715579140596047,-0.00028578830357661695
8.5,0.06364193231025582,-0.18054584058407358,9.8,-0.011954895583292317,0.003206077998871402,0.002313254805299112
8.51,0.106961205630914,-0.003996606148603279,9.8,-0.023233862420878108,-0.002389108540545886,-0.008886347677447632
8.52,-0.03112586206237314,0.049888121603532176,9.8,-0.00814694700840406,0.009870996192564289,0.006962853893695196
8.53,0.08794296119784466,0.006966516453485511,9.8,-0.0036313410787313254,0.0008546890626300322,-0.006432721303635277
8.540000000000001,0.10824183943196929,0.23059133709002633,9.8,0.02013332481640891,-0.00682641463884573,0.008665952924210253
8.55,-0.029686856103595602,0.10477007904935053,9.8,-0.016358051172981402,0.008429938034484266,-0.00019247796578905838
8.56,-0.23861112417765354,0.03571103362306668,9.8,-0.017561923136048395,-0.014018944030614142,0.018974013926170444
8.57,0.013239325293883365,0.11134305117780825,9.8,-0.007172910742148063,-0.010253906915799558,0.007906879189104708
8.58,0.12366994428529826,0.09978410820042823,9.8,-0.008675594178730523,0.013268970725054847,0.024472824296522543
8.59,-0.014699236070476993,0.018475298486951626,9.8,0.00043625497491238597,0.0034691691218185785,0.0023483753239758143
8.6,0.058995450667079986,-0.24645517653967308,9.8,0.008528267294998821,-0.009129611663732221,-0.01169405681333948
8.61,0.008467761460107434,-0.028977360264233157,9.8,-0.005596323899393413,0.0027370346623219774,-0.005163291727950162
8.620000000000001,-0.11608340254660982,0.07485168836065266,9.8,-0.01937564450095395,0.007143731445367081,0.03652398632439281
8.63,0.14926773356030926,0.015298555885703613,9.8,-0.003523148188112772,-0.0038007531398672207,-0.003599308091059187
8.64,0.03014557799345484,0.13493868085136418,9.8,0.0006274565266141234,0.0025125544882948175,0.018519468384559198
8.65,-0.0409207219917236,-0.15083379047290651,9.8,0.0010322615985292071,0.004470922139974352,0.01413460480806663
8.66,0.053826816484996765,-0.028563725211258995,9.8,-0.007051870663266613,0.006844756017707514,0.004880184845302439
8.67,-0.13067781965480163,-0.03846089422800821,9.8,-0.0061467232234982665,0.006147677389654778,0.007897535245293913
8.68,-0.04174126602177289,0.017629633506153302,9.8,0.012734674975479213,0.000437300230847578,0.0028290406603398432
8.69,0.14643836963589987,-0.13151336806520844,9.8,-0.00035433359533145484,0.005195725129144802,-0.00098457631984397
8.700000000000001,0.07736464284003677,0.036890299076185226,9.8,-0.011525696174926691,0.0021795064016245343,0.0006801352012823172
8.71,0.008235625147453476,-0.12383784538528775,9.8,0.001226674494699585,-0.010671169357089573,0.01811306079748749
8.72,0.024855708975702634,-0.16825854433195936,9.8,0.010733262412181697,0.00043507434182704814,-0.017336893458853284
8.73,-0.039745926787771065,0.05041331428487677,9.8,-0.006939200576857287,0.019039675211189096,-0.0026338669056991605
8.74,-0.025163382488783838,0.057555688884400304,9.8,0.012385844471040564,-0.004420267275752026,0.004842778500779153
8.75,-0.012247519556441308,-0.087291519243181,9.8,-0.0024138474479225487,-0.0025749312545187797,0.007252135419438969
8.76,-0.09637626566046303,-0.08341381424890798,9.8,-0.007022742886171456,0.019108094996365142,-0.0006654936647387412
8.77,0.05369216181637513,-0.06010047237299574,9.8,0.006532611675996154,-0.0012610640487147186,-0.007890537777476555
8.78,-0.176779261194528,-0.19642154877045842,9.8,-0.013956975274377904,0.010343377085828808,0.007303982974988089
8.790000000000001,0.045390248046276976,0.08365534597080691,9.8,0.014221388194085676,0.020286004333314633,-0.006591076850780715
8.8,-0.029153894706611106,-0.04195329945382131,9.8,-0.0016988988216208138,-0.01343628712089391,-0.013540918928099048
8.81,-0.00503320761431467,-0.004928903461734955,9.8,-0.008161141832001992,-0.0016187632593375112,0.005156692044564244
8.82,-0.003333951342067688,0.07593985106119003,9.8,0.008543464657738373,0.0055204867992085915,-0.00863561233303138
8.83,0.09691631496141083,-0.07947183680005931,9.8,0.01573190221300528,-0.006637224960133221,0.0017828494950635862
8.84,-0.18524847552552637,-0.08845741062299753,9.8,-0.009615016012799595,0.0023998331589197845,0.001724386518423507
8.85,-0.05085624565564232,-0.02018905528972846,9.8,-0.0036541095092593456,-0.012640405892466483,0.014833811720661243
8.86,0.027246116342390686,-0.01899862509672609,9.8,-0.005502634681891935,0.013999043368593526,-0.01823505137069572
8.870000000000001,-0.1526392162033778,-0.08516656288697738,9.8,-0.003930865018556055,0.001674152870283412,-0.011800671162456875
8.88,0.07002815026946885,-0.07647317779854518,9.8,0.006725746153516427,0.008276411923567024,-0.008705406426103852
8.89,-0.13084294026051518,0.041157217724271264,9.8,-0.002549372840903472,0.005144432398206694,-0.0011303255812118813
8.9,0.15501332537079815,0.014606601494354044,9.8,-0.0011043788711576255,-0.017578598557426658,0.015324098313759043
8.91,0.3246153319494136,-0.05481437455156152,9.8,-0.01031716623323506,0.010527095920287182,-0.0005229500912929396
8.92,0.11052602818736545,0.06626704842498359,9.8,-0.0017950954427449208,0.011304600942808607,-0.010027044419333601
8.93,0.08353785448849259,-0.038594800597707604,9.8,-0.008811341686672807,-0.003598586635029702,0.0019572290314694638
8.94,0.17301652641639045,0.05523229205507875,9.8,-0.01791022359705017,-0.001370134549489357,-0.015777883557312626
8.950000000000001,0.034413029107960735,0.13589543254383002,9.8,0.013620760855125511,0.014285007592006604,-0.01985484824282083
8.96,-0.052368197028216226,-0.0925633704229176,9.8,-0.013602630310508963,-0.009193290251795903,-0.000581775251270317
8.97,0.17676841856354839,-0.01029743128661208,9.8,-0.015627588071326724,-0.0019083225753841646,0.020517593226199216
8.98,-0.02123831074634876,0.015530177805928047,9.8,0.006713791399620092,0.002618495195582451,-4.741176536581747e-05
8.99,0.16159731702892244,-0.03398111601926659,9.8,2.5866456672212682e-05,0.011709842096846777,0.00655761587468628
9.0,0.08437560814397785,0.0916600142591305,9.8,-0.01166185607388372,-0.015339302326190898,-0.004717155546806992
9.01,-0.14334864820174886,0.15834272405200242,9.8,-0.014425571022688901,0.00980257200338293,-0.010951667033811365
9.02,-0.08133170257684698,-0.0070249704928063055,9.8,0.0021253784786260197,0.0033126233460059164,0.009719323453709836
9.03,0.11320335477156429,0.02225219616848126,9.8,-0.008065400963206942,0.023494396081775188,0.010390865147863176
9.040000000000001,0.1627975388589085,0.018798183134443976,9.8,0.00705731035200481,-0.005215994438038579,0.011625605554317025
9.05,-0.14907407706011158,-0.021718622567333423,9.8,0.016447065179648057,-0.010221807569903516,0.0053030615970617945
9.06,-0.12228189153136854,-0.24426793292633883,9.8,-0.018401504601714996,-0.0003271268782870717,0.01778790401634016
9.07,0.02874577358052239,-0.021077252614496306,9.8,-0.006660509581007115,-0.0028575634874972835,0.001300755609980287
9.08,0.035046360848185,0.09038151307336645,9.8,0.00576035791323537,0.010959482878421615,-0.014294919351635401
9.09,-0.0025935020930954755,0.02956992339384793,9.8,-0.008378767260117137,-0.0027769431922887266,-0.001757972787559057
9.1,-0.06531787362576005,0.010502953582515266,9.8,-0.006936423945813607,-0.006167544529413275,-0.013996239630483649
9.11,-0.02416926416400531,-0.01349126391145589,9.8,-0.009036760895328675,0.011590504741771802,-0.008661679396827406
9.120000000000001,-0.04115694575399427,0.029934272264076314,9.8,-0.0008941201555118073,-0.025538340007865427,-0.016112811178560893
9.13,-0.015838190161063522,-0.07480309243491812,9.8,0.0058126515379827715,-0.0018906736307582903,0.012718005955757387
9.14,-0.048698282862955855,-0.019629594990509504,9.8,-0.01077137179440435,0.004407157005961629,-0.0031151633306384626
9.15,-0.07225877207059943,-0.04526129516527068,9.8,-0.01620852853721807,0.005814213351321266,0.006208103763713826
9.16,-0.08681661931408664,-0.01881748753395425,9.8,0.014294703919080361,0.014008501222199262,0.004587974629350663
9.17,0.051442719594982846,-0.08755959133756272,9.8,0.0029840791402985186,-0.0002358913418338081,-0.0033601867833550542
9.18,0.06337577695838204,-0.07693403957684791,9.8,0.01218293355188472,-0.0015158728777193617,0.009006867668018611
9.19,0.09099146969374217,-0.0004558860539884959,9.8,0.01801915097948849,-0.003336611011204231,0.008365889492350934
9.200000000000001,-0.11213930209631584,0.07767390143887021,9.8,0.009948078567813809,0.009269647814053017,-0.004961946769581772
9.21,0.1881131502925372,-0.05250658701333364,9.8,0.012833359174943406,0.004155476830447371,-0.016867727846865962
9.22,0.07686829047361703,-0.025310738930835137,9.8,0.007611687664126755,-0.004930011728460425,0.005926312119606377
9.23,-0.005832787769895185,-0.057868261173348305,9.8,-0.0012929655388069627,-0.005799467220547806,0.012421892702821234
9.24,-0.04072942838342841,0.0347427853163804,9.8,-0.0007901730998008923,0.005530325502215025,-0.0015538806590233792
9.25,0.10614218545260384,0.037438567117995404,9.8,-0.017481516761942893,0.01241081958855894,0.01697437721333011
9.26,0.08963268524540102,-0.054533419074179,9.8,0.015345252398251737,-0.0008466884835595409,-0.003433702813691111
9.27,0.05508164964709276,0.1593631514275131,9.8,0.018330018389994703,-0.0018982619268043106,0.003045158760115155
9.28,-0.15307954438442745,-0.04198810715693919,9.8,0.013534907176445262,-0.01707915583732639,-0.0024324819496968474
9.290000000000001,0.12841088250621863,-0.09686338233382338,9.8,-0.012614895685172165,0.0004982495378864061,0.005867837921347275
9.3,0.042826763776608184,0.03369506143089426,9.8,0.005338139423309309,0.004297278684926325,0.006931840781628998
9.31,0.16016039502278687,-0.10074215576278903,9.8,-0.01584825785138657,-0.001662384800351044,0.00796314701751426
9.32,0.027735088910157746,0.0183011517424922,9.8,-0.0017802832862020524,-0.003291888738386344,0.006574110641630346
9.33,-0.033545310190441775,-0.12368100714973317,9.8,-0.0019984615976969765,0.000688832722506477,-0.0074757971477643
9.34,-0.09707025681006229,0.07818923199852947,9.8,-0.01276863292005903,0.0008995832295813053,0.013820168661364167
9.35,-0.09304353364736023,0.13242076674003245,9.8,0.011374235454579298,0.004240732296590668,0.005080689274993232
9.36,0.05304934168457527,-0.06523670313109738,9.8,-0.009632195318065993,0.01007216832303311,-0.00583842590539908
9.370000000000001,-0.09678397900307428,0.002968117460541456,9.8,-0.003750654168720433,-0.009262089883047353,-0.0017013993850620369
9.38,-0.0607935534407466,0.004466252288876088,9.8,0.0021799981261653957,-0.0034253068601448958,0.01326591649505221
9.39,0.11324079646504058,-0.07254703930712383,9.8,0.0027621663426980487,0.01511382948664254,-0.013666466289475612
9.4,0.16274627693580204,0.08378373128978275,9.8,0.007711588287884819,-0.011819006356529094,-0.007199303725769806
9.41,-0.20498294841206863,-0.21263213724082083,9.8,0.00248418457666737,0.003629329019226424,-0.016566958209384974
9.42,-0.10230728423707175,0.2459825480713983,9.8,-0.0032975932500308204,-0.0069705907273040725,0.002437764185713887
9.43,0.016869581778684747,-0.14140862654854527,9.8,-0.006111208005374553,0.005503944012370576,0.003321031470449966
9.44,0.17118890396993203,-0.09872653729629387,9.8,0.0021703563229204556,-0.0011736485942454929,0.006394184950187053
9.450000000000001,-0.018278538692163712,-0.14762108078926406,9.8,-0.024528405294137516,0.013774993811870891,-0.004851023321642996
9.46,0.0037024227387538328,-0.05792632570981618,9.8,0.002078829285204501,-0.00930907041022435,0.015636335411431487
9.47,0.057616326817412106,0.16300928197613362,9.8,-0.003167424386065167,-0.009985002459058073,0.004215638515020213
9.48,0.06419239889414143,-0.1698832158365053,9.8,-0.011002264373642363,0.014365069621631851,0.00326061134901787
9.49,0.10308108534758027,-0.09153705774887207,9.8,0.0010085394099427056,-0.00805867842155587,-0.015472518018052678
9.5,-0.13468530778606377,-0.05193315284463889,9.8,0.0044987961340201155,-0.00653162563225526,-0.00784096927814254
9.51,-0.1320597919441586,-0.005903919944164383,9.8,-0.012454307679433247,0.011189677795151289,-0.004308831867163886
9.52,-0.06985499667834696,0.18302625129523753,9.8,-0.0008802508028678465,-0.0010297456084445487,0.004957310481589737
9.53,-9.318449811126586e-05,-0.011273161586886241,9.8,0.001003163713036957,-0.013065958670232193,-0.018043928156306194
9.540000000000001,0.029180320488712715,-0.20326216073674283,9.8,0.001704828719498515,0.007517651011053319,-0.003334773806875629
9.55,0.045629312173502606,-0.1684168047583613,9.8,0.005743500434977226,-0.018555932006559486,0.017857101663709643
9.56,0.040321043183683486,0.02428015775509617,9.8,0.005250947982667298,-0.002498680134746923,-0.006330841742337579
9.57,-0.1250426176028517,0.0018849403085776746,9.8,0.00622626699645799,0.008136934003362664,-0.006565205455385024
9.58,0.0468193991945255,-0.09810841936081893,9.8,-0.0017434406289410277,-0.002320503734106583,-0.0017417684203188033
9.59,0.04294720005591432,0.07057163893934469,9.8,-0.01047932629872527,-0.0029117456561536625,0.005393524529080834
9.6,0.062119694083982206,-0.07081030664916811,9.8,-0.026633322549410907,0.0061411506316930995,0.0007949576579065679
9.61,0.010163943448450393,-0.08185650641927071,9.8,0.011923854145852673,-0.015514937373580876,0.004645955136936665
9.620000000000001,0.04391323912764488,0.22478181470925596,9.8,0.016240136627761192,-0.000970363218426305,0.00040960496300774537
9.63,0.17702593181195805,0.026707069550676976,9.8,0.015503854094461929,0.003126060938118281,0.0049969617765419205
9.64,0.005695572672958258,-0.09129674945490944,9.8,-0.005728145489070522,-0.004245071188090823,0.0033811019880969867
9.65,0.1819329029467322,0.11046274662476803,9.8,0.003484266513193106,0.012440464344873677,-0.01941761116335987
9.66,0.10981682302756923,-0.10630471327537461,9.8,0.0010676898136460064,-0.0020412372512636774,-0.005308093522509077
9.67,0.05742895919491503,-0.002296074748970998,9.8,-0.0010369349240481984,0.0015796827619549035,0.0004235268976548033
9.68,-0.12426885232264817,-0.14973054895658444,9.8,-0.004347029291099038,0.011621124085751278,0.005913139761991803
9.69,0.0408164261732211,-0.06785977414469721,9.8,-0.0014902487069949411,-0.014077404414222502,0.008350314231380444
9.700000000000001,-0.04390064730325135,-0.09144866712681173,9.8,0.015961434874799306,-0.009639739022450291,-0.0007805304696839033
9.71,-0.002409366993313359,0.09603552478310674,9.8,-0.014480883880302185,0.02031421755960097,-0.03074378525813635
9.72,0.21758259328940885,0.06298038416727539,9.8,0.007836521637813672,-0.0008541058683633265,0.0024486512767275064
9.73,-0.20892503917770486,0.048633776182336774,9.8,0.009816891699094324,0.0063001640381828315,0.0071345448806568994
9.74,-0.008476136666467111,0.03825223422099958,9.8,0.009819334391965046,0.012765531497199977,-0.012353434978971902
9.75,-0.01942383078813435,0.10332693183419227,9.8,0.004539909320263728,-0.009887991236154355,0.01564809674318546
9.76,0.07642393984987447,0.13476330376092757,9.8,-0.023617408228384457,-0.01700010745698601,-0.0025007912909743987
9.77,0.14215716685651023,0.003679862451395147,9.8,0.014091203545976743,-0.011559238375985149,-0.012294554775801837
9.78,0.03880749405747065,0.0041939955532041395,9.8,-0.0039018736199066283,-0.007688673378816389,-0.010244477229655456
9.790000000000001,0.06041798252052323,0.1925535066751681,9.8,-0.0013423450298727846,0.012089086120517074,-0.007843768299006468
9.8,-0.054750652559461946,0.037667774024688655,9.8,-0.0020515259884713445,0.0021328154521846744,-0.003908744511467866
9.81,-0.09546171268815327,-0.12790542852000572,9.8,0.007605631091245673,-0.015046893768704373,0.00482196937277966
9.82,-0.024980689591337493,-0.20128945454322655,9.8,0.003703002126399402,0.01188437233112416,0.012554759872766703
9.83,0.04629008840065271,-0.058891059534484515,9.8,-0.02107624036297529,0.0016704035846709423,-0.003911142378496226
9.84,-0.05526996883069843,0.0445091095930483,9.8,-0.022706590531159154,-0.002382970541197964,-0.002750020726852294
9.85,-0.15953628069890619,0.0496897459800468,9.8,0.00504599685872442,0.00031907939669213904,-0.005517391482655091
9.86,-0.03989981546771688,-0.15196780064994747,9.8,0.014870606543397518,0.0037786086904783947,0.016323499307911188
9.870000000000001,-0.05567515766600098,-0.13199390861680232,9.8,0.01915347172350242,0.01600715047081326,-0.0015835321607398883
9.88,0.023230839807482195,-0.012512277314444176,9.8,0.004620161007946473,-0.015131142747257862,0.0063658149922120235
9.89,-0.0910198359499899,0.02168688894902159,9.8,0.0016812012527496407,0.01736501725027417,-0.009003346100837497
9.9,0.07058440383337544,0.11811691098474453,9.8,-0.003154365581591297,-0.0027268276031545548,0.010375365905234494
9.91,-0.07180288350472272,-0.0365341110235009,9.8,0.00569462011651735,0.004436778067529094,-0.011680172199067895
9.92,-0.055302229696860085,0.12752584315199486,9.8,0.01065342257385957,0.013173852805092706,0.004447586934324832
9.93,0.1565474925647713,0.10260754697681347,9.8,-0.01269989449512738,0.01308449727614204,0.01637893883551537
9.94,-0.023519895126533866,-0.07285444181684668,9.8,0.01378105059570716,0.009624158155179668,0.016805150845861136
9.950000000000001,0.1841287070363916,0.0865596763347551,9.8,0.008621459528916929,0.004932331242115299,-0.010853849254345346
9.96,-0.09480611426122958,0.10243581140789762,9.8,0.014178404899731956,0.007811029165299876,-0.0002476550140126931
9.97,-0.12801265110964657,0.12750974387758232,9.8,0.015170167222912994,-0.0013055746004751374,-0.008463733465293517
9.98,-0.13977690301390952,0.022193628505139687,9.8,0.0174876661179003,0.0028378845500003813,0.003526850115113757
9.99,0.14559001471293312,-0.0609437122876662,9.8,0.008515604290652522,0.008818393172380392,-0.005792004464719549
